# Time (seconds),Accel_X,Accel_Y,Accel_Z,Gyro_X,Gyro_Y,Gyro_Z
0.0024999,2.6228480339050293,-0.36332011222839355,9.965266227722168,14.068603515625,31.25,-46.44775390625
0.0074999,2.6228480339050293,-0.36332011222839355,9.965266227722168,14.068603515625,31.25,-46.44775390625
0.012499900000000001,1.789067268371582,-0.6470330357551575,9.860519409179688,4.974365234375,20.294189453125,-51.69677734375
0.0174999,0.6242880821228027,-0.25677812099456787,9.84256362915039,-3.23486328125,3.204345703125,-20.843505859375
0.0224999,-0.7972691655158997,0.08200141042470932,9.830592155456543,-17.9443359375,-8.23974609375,5.31005859375
0.0274999,-1.9171570539474487,-1.0217255353927612,9.23443603515625,-22.613525390625,-22.88818359375,32.867431640625
0.0324999,-1.4652514457702637,-2.25473952293396,8.927978515625,5.401611328125,-22.15576171875,44.37255859375
0.0374999,-0.48602294921875,-2.846705913543701,8.65863037109375,13.458251953125,-13.48876953125,42.633056640625
0.0424999,0.30286651849746704,-2.6647465229034424,8.898050308227539,22.216796875,-6.622314453125,48.614501953125
0.0474999,1.0833762884140015,-1.5682021379470825,9.302072525024414,12.908935546875,1.8310546875,20.721435546875
0.0524999,1.678335428237915,-0.4076128304004669,9.75278091430664,1.434326171875,3.570556640625,-19.775390625
0.0574999,2.0703859329223633,0.1215057373046875,10.071209907531738,-0.79345703125,17.547607421875,-34.0576171875
0.0624999,2.3325510025024414,0.20709845423698425,10.023923873901367,9.21630859375,27.16064453125,-22.705078125
0.0674999,2.144606113433838,-0.2082955539226532,10.037690162658691,13.458251953125,30.242919921875,-58.624267578125
0.0724999,1.41257905960083,-0.7056909799575806,9.849146842956543,3.0517578125,15.380859375,-54.8095703125
0.0774999,0.3902548849582672,0.2472013235092163,10.047865867614746,-7.080078125,0.6103515625,-23.92578125
0.0824999,-1.933916449546814,-1.2647370100021362,9.41400146484375,-12.054443359375,-26.519775390625,40.496826171875
0.0874999,-1.1563993692398071,-2.477998733520508,8.771756172180176,6.561279296875,-15.716552734375,41.1376953125
0.0924999,-0.08379705995321274,-2.828150749206543,8.71369743347168,16.90673828125,-11.53564453125,52.42919921875
0.0974999,0.619499683380127,-2.541445016860962,8.950722694396973,22.979736328125,-5.31005859375,46.600341796875
0.1024999,1.1534066200256348,-1.1659762859344482,9.396044731140137,10.7421875,1.068115234375,11.04736328125
0.1074999,1.5819687843322754,-0.20470423996448517,9.86770248413086,-0.701904296875,4.45556640625,-28.6865234375
0.1124999,1.9865888357162476,0.4213795065879822,10.114903450012207,1.3427734375,20.32470703125,-30.609130859375
0.1174999,2.0620062351226807,0.16101007163524628,10.063427925109863,12.26806640625,29.327392578125,-25.5126953125
0.1224999,1.8501193523406982,-0.17058686912059784,9.984419822692871,12.481689453125,27.52685546875,-63.323974609375
0.1274999,0.9917980432510376,-0.7553706169128418,9.747992515563965,-0.06103515625,8.1787109375,-49.346923828125
0.1324999,-0.06344634294509888,0.166995570063591,9.619303703308105,-11.1083984375,-2.777099609375,-13.427734375
0.1374999,-1.68970787525177,-0.28371289372444153,9.123703956604004,-37.353515625,-22.857666015625,11.41357421875
0.1424999,-1.656787633895874,-1.521515130996704,9.135675430297852,-12.26806640625,-25.08544921875,44.525146484375
0.1474999,-0.7206547260284424,-2.62823486328125,8.597578048706055,8.392333984375,-17.120361328125,48.7060546875
0.1524999,0.1149216815829277,-3.093907117843628,8.62391471862793,24.10888671875,-12.603759765625,60.72998046875
0.1574999,0.5452794432640076,-2.6821043491363525,8.882488250732422,27.618408203125,-3.936767578125,48.065185546875
0.1624999,1.0127472877502441,-1.1037269830703735,9.427767753601074,10.223388671875,-1.312255859375,10.986328125
0.1674999,1.523909330368042,-0.047884032130241394,9.947309494018555,-2.50244140625,1.03759765625,-30.09033203125
0.1724999,2.094926595687866,0.6033388376235962,10.276512145996094,-0.030517578125,24.10888671875,-30.242919921875
0.17749990000000002,2.322375535964966,0.39564183354377747,10.144232749938965,13.61083984375,32.53173828125,-31.31103515625
0.1824999,2.027888774871826,-0.10235211998224258,10.042478561401367,11.3525390625,27.130126953125,-61.553955078125
0.1874999,1.0408791303634644,-0.8325836658477783,9.832986831665039,-2.105712890625,6.77490234375,-44.281005859375
0.1924999,-0.2759317457675934,-0.06584054976701736,9.6989107131958,-16.693115234375,-5.340576171875,-12.481689453125
0.1974999,-1.9219454526901245,-0.7236474752426147,9.10574722290039,-38.39111328125,-25.08544921875,18.829345703125
0.2024999,-1.9219454526901245,-0.7236474752426147,9.10574722290039,-38.39111328125,-25.08544921875,18.829345703125
0.20749990000000001,-1.801636815071106,-1.7304092645645142,9.026739120483398,-6.77490234375,-27.191162109375,46.295166015625
0.2124999,-0.7864952683448792,-2.6641478538513184,8.3306245803833,10.3759765625,-17.730712890625,48.492431640625
0.2174999,-0.08140286058187485,-3.116652011871338,8.450334548950195,28.656005859375,-13.00048828125,64.178466796875
0.2224999,0.3878606855869293,-2.742558002471924,8.690353393554688,31.707763671875,-4.913330078125,50.201416015625
0.2274999,0.9540894031524658,-1.191115379333496,9.319430351257324,13.397216796875,-2.471923828125,9.46044921875
0.2324999,1.6053122282028198,-0.15502455830574036,9.916783332824707,-1.28173828125,2.13623046875,-29.266357421875
0.2374999,2.4917654991149902,0.3232172429561615,10.271124839782715,2.0751953125,27.618408203125,-28.076171875
0.2424999,-0.0035913025494664907,-2.5133132934570312,8.917203903198242,16.998291015625,-12.451171875,51.8798828125
0.2474999,-0.0035913025494664907,-2.5133132934570312,8.917203903198242,16.998291015625,-12.451171875,51.8798828125
0.2524999,0.5500678420066833,-1.8962076902389526,9.248801231384277,15.7470703125,-5.2490234375,43.51806640625
0.2574999,1.2204443216323853,-0.6212953329086304,9.761159896850586,6.317138671875,-0.946044921875,14.2822265625
0.2624999,1.9686323404312134,-0.0628477931022644,9.99339771270752,-2.01416015625,3.5400390625,-26.214599609375
0.2674999,2.7287914752960205,-0.016759412363171577,10.200496673583984,4.974365234375,27.618408203125,-27.374267578125
0.2724999,3.047220230102539,-0.1364694982767105,10.033500671386719,19.012451171875,38.848876953125,-36.4990234375
0.2774999,2.470217704772949,-0.3250128924846649,9.995792388916016,8.30078125,28.62548828125,-48.553466796875
0.2824999,0.9570821523666382,-0.641047477722168,9.75517463684082,-6.072998046875,8.056640625,-30.181884765625
0.28749990000000003,-1.9033904075622559,-0.4578910768032074,9.360730171203613,-26.79443359375,-14.251708984375,2.349853515625
0.2924999,-2.1583728790283203,-0.5979518890380859,8.730456352233887,-24.505615234375,-16.90673828125,9.002685546875
0.2974999,-1.8590975999832153,-1.7609353065490723,8.955511093139648,-0.1220703125,-22.430419921875,40.95458984375
0.3024999,-1.0426748991012573,-2.5707740783691406,8.668806076049805,6.011962890625,-17.76123046875,31.982421875
0.3074999,-0.1149216815829277,-2.5695769786834717,9.030928611755371,10.80322265625,-12.51220703125,37.872314453125
0.3124999,0.5285200476646423,-2.05781626701355,9.32421875,15.31982421875,-9.246826171875,39.97802734375
0.3174999,1.2384008169174194,-0.849941611289978,9.75517463684082,8.544921875,-0.213623046875,14.007568359375
0.3224999,1.9075802564620972,-0.18495208024978638,9.960477828979492,-0.1220703125,3.570556640625,-20.477294921875
0.3274999,2.3924059867858887,0.15981295704841614,10.11550235748291,1.739501953125,22.186279296875,-27.618408203125
0.3324999,1.9345149993896484,-0.333991140127182,9.972448348999023,13.61083984375,31.1279296875,-22.125244140625
0.3374999,1.3335703611373901,0.05985504388809204,9.703699111938477,8.1787109375,14.190673828125,-18.00537109375
0.3424999,0.24600422382354736,0.3770867586135864,9.901819229125977,-6.28662109375,-11.505126953125,16.9677734375
0.34749990000000003,-0.002394201699644327,-1.282094955444336,9.512762069702148,-6.89697265625,-1.8310546875,7.232666015625
0.35249990000000003,0.05746084079146385,-0.5692214369773865,9.793481826782227,-5.0048828125,-8.880615234375,15.472412109375
0.3574999,0.07900865375995636,-0.2777273952960968,9.821015357971191,-1.922607421875,-9.368896484375,7.9345703125
0.3624999,0.07242459803819656,-0.3214215636253357,9.882665634155273,-1.800537109375,-5.615234375,11.962890625
0.3674999,0.2890998423099518,-0.40880993008613586,9.883264541625977,1.129150390625,-6.072998046875,10.894775390625
0.3724999,0.5015852451324463,-0.558447539806366,9.84376049041748,3.7841796875,-5.06591796875,1.03759765625
0.3774999,0.6129156351089478,-0.5554547905921936,9.780912399291992,3.662109375,-0.79345703125,0.06103515625
0.3824999,0.8008604645729065,-0.578798234462738,9.7791166305542,1.89208984375,1.3427734375,-0.18310546875
0.3874999,0.9780313968658447,-0.45669397711753845,9.768941879272461,2.227783203125,2.0751953125,-7.75146484375
0.3924999,0.9642647504806519,-0.3998316824436188,9.791088104248047,1.77001953125,6.500244140625,-6.805419921875
0.3974999,0.9151836037635803,-0.37469255924224854,9.816825866699219,1.52587890625,6.16455078125,-11.566162109375
0.4024999,0.7625532150268555,-0.3292027413845062,9.803657531738281,2.044677734375,8.7890625,-10.55908203125
0.4074999,0.6015431880950928,-0.32680854201316833,9.835979461669922,1.0986328125,8.758544921875,-8.392333984375
0.41249990000000003,0.3405751883983612,-0.2064998894929886,9.813833236694336,-1.28173828125,4.7607421875,-9.063720703125
0.41749990000000003,-0.031124621629714966,-0.19632454216480255,9.823410034179688,-3.90625,1.8310546875,-4.852294921875
0.4224999,-0.32620999217033386,-0.11192893236875534,9.858723640441895,-3.753662109375,-3.204345703125,5.92041015625
0.4274999,-0.5770025849342346,-0.17896658182144165,9.85034465789795,-5.37109375,-6.866455078125,9.674072265625
0.4324999,-0.6212953329086304,-0.29388827085494995,9.861717224121094,-6.256103515625,-9.735107421875,15.777587890625
0.4374999,-0.43335050344467163,-0.5117605924606323,9.82879638671875,-3.47900390625,-11.29150390625,16.510009765625
0.4424999,-0.10474632680416107,-0.7140706777572632,9.745597839355469,0.823974609375,-10.101318359375,15.5029296875
0.4474999,0.2711433470249176,-0.9780313968658447,9.742006301879883,3.11279296875,-6.500244140625,9.246826171875
0.4524999,0.6823474764823914,-0.9906009435653687,9.66539192199707,5.2490234375,-6.77490234375,9.735107421875
0.4574999,1.0767922401428223,-0.8176198601722717,9.730634689331055,5.950927734375,-2.44140625,-3.387451171875
0.4624999,1.2826935052871704,-0.5099649429321289,9.758167266845703,3.35693359375,4.94384765625,-9.94873046875
0.4674999,1.404199242591858,-0.2849099934101105,9.785700798034668,1.129150390625,8.209228515625,-11.29150390625
0.47249990000000003,1.3982137441635132,-0.2561795711517334,9.805453300476074,1.89208984375,8.4228515625,-14.312744140625
0.47749990000000003,1.357512354850769,-0.2902969419956207,9.84495735168457,4.547119140625,12.5732421875,-15.380859375
0.4824999,1.1216834783554077,-0.5249287486076355,9.79527759552002,4.608154296875,18.280029296875,-24.017333984375
0.4874999,0.6727706789970398,-0.4794389009475708,9.824007987976074,3.173828125,16.387939453125,-13.519287109375
0.4924999,0.1215057373046875,0.23582886159420013,9.980828285217285,-2.166748046875,1.8310546875,-5.767822265625
0.4974999,-0.6697779297828674,0.04429273307323456,9.973047256469727,-13.153076171875,-6.317138671875,-1.983642578125
0.5024999,-1.1228805780410767,0.2388216257095337,9.835979461669922,-15.045166015625,-9.3994140625,5.2490234375
0.5074999,-1.1623848676681519,-0.22505496442317963,9.847352027893066,-3.90625,-13.916015625,24.627685546875
0.5124999,-0.43993455171585083,-1.1049240827560425,9.498994827270508,-0.274658203125,-11.65771484375,23.25439453125
0.5174999,0.13048399984836578,-1.30543851852417,9.561244010925293,4.45556640625,-11.90185546875,21.728515625
0.5224999,0.6087257862091064,-1.148618221282959,9.609128952026367,9.063720703125,-9.246826171875,13.671875
0.5274999,1.1982979774475098,-0.7643488645553589,9.70310115814209,7.598876953125,-1.953125,-2.838134765625
0.5324999,1.678335428237915,-0.39145198464393616,9.855731010437012,1.64794921875,8.514404296875,-17.486572265625
0.5374999,1.9033904075622559,-0.24181437492370605,9.835979461669922,0.946044921875,14.190673828125,-16.41845703125
0.5424999,2.0183119773864746,-0.24121582508087158,9.932345390319824,5.7373046875,15.533447265625,-17.608642578125
0.5474999,1.8177976608276367,-0.5554547905921936,9.84495735168457,8.11767578125,20.782470703125,-35.186767578125
0.5524999,1.313219666481018,-0.6308721303939819,9.844358444213867,4.94384765625,23.62060546875,-32.04345703125
0.5574999,0.48722004890441895,0.05506663769483566,9.778518676757812,0.823974609375,10.3759765625,-15.289306640625
0.5624999,-0.6224924325942993,0.24241292476654053,9.780313491821289,-15.869140625,-7.965087890625,-8.575439453125
0.5674999000000001,-1.5867571830749512,0.20470423996448517,9.505578994750977,-22.76611328125,-13.48876953125,-0.8544921875
0.5724999000000001,2.182314872741699,-0.524330198764801,9.848548889160156,9.765625,25.57373046875,-51.3916015625
0.5774999000000001,1.3114240169525146,-0.6554127335548401,9.727641105651855,1.46484375,18.768310546875,-35.58349609375
0.5824999,0.2908954918384552,0.10714052617549896,9.880870819091797,-5.401611328125,1.495361328125,-20.294189453125
0.5874999,-1.1671733856201172,-0.13407529890537262,9.768941879272461,-22.674560546875,-11.138916015625,-5.401611328125
0.5924999,-2.0835540294647217,-1.1593921184539795,9.264363288879395,-8.6669921875,-24.749755859375,33.843994140625
0.5974999,-1.5107412338256836,-2.051830768585205,8.82203483581543,3.7841796875,-17.76123046875,32.77587890625
0.6024999,-0.5057750940322876,-2.367865562438965,8.944138526916504,8.97216796875,-11.077880859375,34.85107421875
0.6074999,0.17717093229293823,-2.0614075660705566,9.170989990234375,14.7705078125,-10.68115234375,44.464111328125
0.6124999,0.8684966564178467,-1.2324153184890747,9.501988410949707,10.6201171875,-3.41796875,24.658203125
0.6174999,1.5831658840179443,-0.2819172441959381,9.794678688049316,2.899169921875,0.335693359375,-4.8828125
0.6224999,2.228403329849243,-0.0694318488240242,9.97065258026123,-0.9765625,12.725830078125,-30.975341796875
0.6274999,2.6850972175598145,0.053270988166332245,10.06582260131836,8.1787109375,28.228759765625,-17.364501953125
0.6324999,2.7503392696380615,-0.4513070285320282,9.987412452697754,14.129638671875,29.937744140625,-43.45703125
0.6374999,2.057217836380005,-0.5111620426177979,9.913191795349121,5.584716796875,23.3154296875,-52.520751953125
0.6424999,0.9247604012489319,-0.4495113790035248,9.519346237182617,-3.41796875,6.40869140625,-31.768798828125
0.6474999,-0.7152677774429321,0.02693476900458336,9.391854286193848,-19.012451171875,-8.97216796875,-13.092041015625
0.6524999,-2.4791958332061768,-1.0295066833496094,8.85794734954834,-18.37158203125,-25.543212890625,23.86474609375
0.6574999,-1.845929503440857,-1.945288896560669,8.969876289367676,3.7841796875,-22.735595703125,38.665771484375
0.6624999,-0.9097966551780701,-2.5085248947143555,8.89565658569336,7.9345703125,-12.451171875,35.125732421875
0.6674999,0.10714052617549896,-2.3020248413085938,9.229647636413574,16.387939453125,-10.92529296875,50.10986328125
0.6724999,0.6171054840087891,-1.6430208683013916,9.490615844726562,13.12255859375,-5.859375,37.811279296875
0.6774999,1.212663173675537,-0.424970805644989,9.884461402893066,5.035400390625,-0.1220703125,11.90185546875
0.6824999,1.9512743949890137,-0.03711012750864029,10.013150215148926,-1.739501953125,5.523681640625,-26.702880859375
0.6874999,2.608482837677002,0.1256955862045288,10.180744171142578,5.18798828125,27.52685546875,-24.658203125
0.6924999000000001,2.9436709880828857,-0.3315969407558441,9.946710586547852,16.66259765625,35.09521484375,-32.958984375
0.6974999000000001,2.4869771003723145,-0.4644751250743866,9.934141159057617,9.490966796875,28.411865234375,-57.220458984375
0.7024999000000001,1.2000936269760132,-0.7781155705451965,9.68155288696289,-3.814697265625,9.002685546875,-40.1611328125
0.7074999,-0.27712884545326233,0.30705636739730835,9.540295600891113,-14.5263671875,-7.354736328125,-22.613525390625
0.7124999,-2.4845829010009766,-0.5464765429496765,8.995016098022461,-24.658203125,-23.406982421875,12.75634765625
0.7174999,-2.187103271484375,-1.6089035272598267,9.12849235534668,-0.152587890625,-25.32958984375,39.642333984375
0.7224999,-1.1941081285476685,-2.3331496715545654,8.7885160446167,7.415771484375,-14.556884765625,34.027099609375
0.7274999,-0.10055647045373917,-2.319382905960083,9.130887031555176,14.83154296875,-10.3759765625,46.295166015625
0.7324999,0.5859808921813965,-1.8339585065841675,9.350554466247559,14.70947265625,-8.056640625,40.557861328125
0.7374999,1.1929110288619995,-0.5410895943641663,9.79647445678711,6.53076171875,-1.068115234375,15.68603515625
0.7424999,1.877652645111084,-0.01975216343998909,9.980828285217285,-0.9765625,1.983642578125,-19.775390625
0.7474999,2.476801633834839,0.3190273642539978,10.095151901245117,2.532958984375,22.15576171875,-28.38134765625
0.7524999,2.8556840419769287,-0.1735796183347702,9.880271911621094,15.106201171875,33.172607421875,-25.20751953125
0.7574999,2.625840663909912,-0.3345896899700165,9.86111831665039,12.359619140625,31.18896484375,-56.09130859375
0.7624999,1.4173674583435059,-0.7763199210166931,9.733028411865234,-1.373291015625,13.702392578125,-41.412353515625
0.7674999,0.0975637212395668,0.34416648745536804,9.962871551513672,-10.498046875,-4.150390625,-25.665283203125
0.7724999,-2.42472767829895,-0.3842693865299225,9.457695007324219,-29.693603515625,-20.81298828125,3.387451171875
0.7774999,-2.3517045974731445,-1.4772224426269531,9.276334762573242,-6.622314453125,-27.16064453125,37.17041015625
0.7824999,-1.5071499347686768,-2.5534160137176514,8.685564994812012,8.270263671875,-18.280029296875,37.750244140625
0.7874999,-0.33518823981285095,-2.7269957065582275,8.860342025756836,14.007568359375,-11.016845703125,44.49462890625
0.7924999,0.3555389642715454,-2.252345323562622,9.090784072875977,16.998291015625,-8.758544921875,48.52294921875
0.7974999,1.0187327861785889,-0.9445125460624695,9.582792282104492,8.72802734375,-1.03759765625,27.52685546875
0.8024999,1.7274165153503418,-0.08559270948171616,9.877877235412598,0.274658203125,-0.579833984375,-8.514404296875
0.8074999,1.7274165153503418,-0.08559270948171616,9.877877235412598,0.274658203125,-0.579833984375,-8.514404296875
0.8124999,2.406771183013916,0.22086510062217712,10.0765962600708,0.030517578125,17.059326171875,-32.77587890625
0.8174999000000001,2.962226152420044,-0.06224924325942993,9.945513725280762,13.397216796875,34.576416015625,-21.728515625
0.8224999000000001,2.911947727203369,-0.33758243918418884,9.960477828979492,15.380859375,35.064697265625,-52.30712890625
0.8274999000000001,1.84233820438385,-0.6428431272506714,9.81143856048584,1.007080078125,17.913818359375,-47.05810546875
0.8324999000000001,0.9199720025062561,-1.2773065567016602,9.464279174804688,10.650634765625,-2.74658203125,28.778076171875
0.8374999,0.9199720025062561,-1.2773065567016602,9.464279174804688,10.650634765625,-2.74658203125,28.778076171875
0.8424999,1.5502456426620483,-0.16639702022075653,9.879075050354004,1.77001953125,-0.885009765625,-2.50244140625
0.8474999,2.211643934249878,0.1107318252325058,10.095749855041504,-1.556396484375,11.5966796875,-32.012939453125
0.8524999,2.7551276683807373,0.09217676520347595,10.119691848754883,9.521484375,30.548095703125,-20.44677734375
0.8574999,2.84790301322937,-0.3579331636428833,10.06462574005127,16.2353515625,34.72900390625,-46.478271484375
0.8624999,2.036867141723633,-0.5524620413780212,9.909601211547852,4.486083984375,22.5830078125,-50.140380859375
0.8674999,-1.0073603391647339,0.2621650993824005,9.67077922821045,-22.674560546875,-11.383056640625,-9.674072265625
0.8724999,-1.0073603391647339,0.2621650993824005,9.67077922821045,-22.674560546875,-11.383056640625,-9.674072265625
0.8774999,-2.185906171798706,-0.22086510062217712,9.315838813781738,-32.257080078125,-17.547607421875,-2.105712890625
0.8824999,-1.9632453918457031,-2.1481974124908447,9.039308547973633,5.31005859375,-22.76611328125,41.046142578125
0.8874999,-1.9632453918457031,-2.1481974124908447,9.039308547973633,5.31005859375,-22.76611328125,41.046142578125
0.8924999,-0.7846996188163757,-2.7563247680664062,8.804078102111816,11.04736328125,-12.847900390625,39.12353515625
0.8974999,0.07122749835252762,-2.5695769786834717,9.138668060302734,19.378662109375,-10.498046875,52.398681640625
0.9024999,0.768538773059845,-1.6424223184585571,9.385271072387695,13.031005859375,-3.265380859375,37.4755859375
0.9074999,1.4736311435699463,-0.3627215623855591,9.807249069213867,3.41796875,-0.6103515625,7.568359375
0.9124999,2.2038626670837402,0.05506663769483566,9.992799758911133,-2.3193359375,7.2021484375,-30.57861328125
0.9174999,2.846107244491577,0.20470423996448517,10.14782428741455,7.32421875,29.876708984375,-22.979736328125
0.9224999,3.0424318313598633,-0.2513911724090576,10.019135475158691,16.998291015625,36.2548828125,-40.10009765625
0.9274999,-0.6560112833976746,0.15741875767707825,9.531915664672852,-19.256591796875,-9.613037109375,-15.380859375
0.9324999,-0.6560112833976746,0.15741875767707825,9.531915664672852,-19.256591796875,-9.613037109375,-15.380859375
0.9374999,-2.006340980529785,-0.5345055460929871,9.376891136169434,-31.67724609375,-15.350341796875,-1.922607421875
0.9424999000000001,-2.52109432220459,-0.8098387122154236,8.875904083251953,-22.39990234375,-25.45166015625,21.209716796875
0.9474999000000001,-1.9363106489181519,-1.799242615699768,8.82203483581543,2.25830078125,-23.712158203125,40.740966796875
0.9524999000000001,-0.9175778031349182,-2.455852508544922,8.58919906616211,9.033203125,-13.61083984375,36.590576171875
0.9574999000000001,0.1496376097202301,-2.3780407905578613,8.932168006896973,18.768310546875,-10.406494140625,50.96435546875
0.9624999,1.9177556037902832,0.011971008032560349,10.038887977600098,-2.105712890625,5.2490234375,-27.52685546875
0.9674999,2.5007436275482178,0.2561795711517334,10.244789123535156,4.852294921875,27.008056640625,-24.688720703125
0.9724999,2.8131868839263916,-0.18495208024978638,10.038887977600098,16.11328125,34.454345703125,-34.332275390625
0.9774999,1.1348515748977661,-0.7643488645553589,9.734225273132324,-3.41796875,8.331298828125,-38.543701171875
0.9824999,-0.3669114112854004,0.12210428714752197,9.510966300964355,-16.357421875,-8.30078125,-17.913818359375
0.9874999,-1.9129672050476074,-0.6236895322799683,9.373299598693848,-31.402587890625,-15.167236328125,-2.227783203125
0.9924999,-2.4229321479797363,-0.7032967209815979,8.886079788208008,-25.634765625,-25.0244140625,15.045166015625
0.9974999,-1.988384485244751,-1.66696298122406,8.939350128173828,-0.335693359375,-25.5126953125,40.618896484375
1.0024999,-1.0055646896362305,-2.367266893386841,8.579621315002441,8.36181640625,-14.923095703125,37.567138671875
1.0074999000000002,0.10175357013940811,-2.3750481605529785,8.954314231872559,18.1884765625,-10.528564453125,51.08642578125
1.0124999000000001,0.6171054840087891,-1.857301950454712,9.215282440185547,16.448974609375,-5.950927734375,43.670654296875
1.0174999000000002,1.1982979774475098,-0.5279214978218079,9.766547203063965,6.317138671875,0.030517578125,16.632080078125
1.0224999000000001,1.8620903491973877,0.0035913025494664907,10.001178741455078,-1.77001953125,2.532958984375,-23.406982421875
1.0274999,2.5665841102600098,0.3429693877696991,10.195109367370605,3.387451171875,25.08544921875,-28.350830078125
1.0324999000000001,2.9053637981414795,-0.12449848651885986,9.971850395202637,15.594482421875,35.2783203125,-29.72412109375
1.0374999,1.3174095153808594,-0.7433996200561523,9.694122314453125,-1.983642578125,10.68115234375,-42.449951171875
1.0424999000000001,-0.1586158573627472,0.25079262256622314,9.531316757202148,-14.09912109375,-6.4697265625,-22.308349609375
1.0474999,-1.902193307876587,-0.48243165016174316,9.428366661071777,-30.09033203125,-13.24462890625,-2.8076171875
1.0524999000000002,-2.4833858013153076,-0.5225345492362976,8.956110000610352,-26.7333984375,-24.5361328125,11.993408203125
1.0574999,-2.255337953567505,-1.6208745241165161,9.05606746673584,-2.25830078125,-26.519775390625,40.069580078125
1.0624999000000002,-1.2419921159744263,-2.4151508808135986,8.712499618530273,7.2021484375,-16.082763671875,37.109375
1.0674999,-0.11671733111143112,-2.4809916019439697,9.065644264221191,16.571044921875,-11.322021484375,49.6826171875
1.0724999000000002,0.52552729845047,-2.0021512508392334,9.294290542602539,16.9677734375,-7.659912109375,46.44775390625
1.0774999,1.1186907291412354,-0.6530185341835022,9.774328231811523,7.4462890625,-0.518798828125,21.087646484375
1.0824999000000002,1.8148049116134644,-0.025737667456269264,9.989208221435547,-1.190185546875,0.732421875,-17.974853515625
1.0874999,2.518101692199707,0.36092591285705566,10.146028518676758,1.800537109375,22.0947265625,-30.45654296875
1.0924999000000002,2.934692621231079,-0.0736217051744461,9.913790702819824,15.0146484375,35.09521484375,-26.67236328125
1.0974999,1.501164436340332,-0.7248445749282837,9.712079048156738,-1.190185546875,13.12255859375,-43.15185546875
1.1024999000000002,0.08080431073904037,0.3411737382411957,9.631275177001953,-12.176513671875,-5.0048828125,-24.261474609375
1.1074999,-1.710058569908142,-0.2849099934101105,9.5408935546875,-29.296875,-12.786865234375,-2.44140625
1.1124999000000002,-2.403778553009033,-0.41958385705947876,9.017760276794434,-29.022216796875,-22.5830078125,6.988525390625
1.1174999,-2.2900538444519043,-1.566406488418579,9.01895809173584,-4.8828125,-26.885986328125,38.9404296875
1.1224999000000002,-1.3652935028076172,-2.5480291843414307,8.594585418701172,7.537841796875,-17.425537109375,38.26904296875
1.1274999,-0.1885433793067932,-2.7078421115875244,8.911218643188477,15.5029296875,-11.29150390625,47.119140625
1.1324999000000002,0.4776432514190674,-2.2176294326782227,9.167398452758789,17.791748046875,-8.11767578125,48.065185546875
1.1374999000000001,1.0965443849563599,-0.8786720037460327,9.690531730651855,8.392333984375,-0.335693359375,24.200439453125
1.1424999000000002,1.7633295059204102,-0.08858546614646912,9.959878921508789,-0.518798828125,-0.06103515625,-14.007568359375
1.1474999000000001,2.3762452602386475,0.2932897210121155,10.162787437438965,0.79345703125,19.47021484375,-31.768798828125
1.1524999000000002,2.87064790725708,-0.03172317147254944,9.959878921508789,14.09912109375,34.637451171875,-24.4140625
1.1574999000000001,-2.3247697353363037,-0.3800795078277588,9.215282440185547,-29.60205078125,-21.453857421875,3.814697265625
1.1624999,-2.2804770469665527,-1.4610615968704224,9.00399398803711,-7.26318359375,-26.85546875,36.68212890625
1.1674999000000001,-1.4610615968704224,-2.5761611461639404,8.483255386352539,7.110595703125,-18.341064453125,38.970947265625
1.1724999,-0.27054479718208313,-2.786850690841675,8.717886924743652,13.916015625,-11.29150390625,44.586181640625
1.1774999000000002,0.4106055796146393,-2.3247697353363037,9.008782386779785,17.822265625,-8.6669921875,48.7060546875
1.1824999,1.0648212432861328,-1.028908133506775,9.548674583435059,9.124755859375,-0.48828125,26.3671875
1.1874999000000002,1.7322049140930176,-0.10714052617549896,9.8784761428833,0.06103515625,0.030517578125,-10.43701171875
1.1924999,2.358887195587158,0.22086510062217712,10.111311912536621,0.1220703125,17.7001953125,-32.745361328125
1.1974999000000002,2.8820202350616455,0.026336219161748886,9.979631423950195,13.397216796875,34.149169921875,-22.491455078125
1.2024999,1.7286136150360107,-0.6015431880950928,9.839570045471191,1.007080078125,17.333984375,-48.095703125
1.2074999000000002,0.34356793761253357,0.284311443567276,10.092757225036621,-9.033203125,-1.800537109375,-31.341552734375
1.2124999,-1.4472949504852295,0.0867898091673851,9.99339771270752,-27.28271484375,-12.054443359375,-6.40869140625
1.2174999000000002,-2.4139537811279297,-0.26156654953956604,9.594164848327637,-31.158447265625,-20.904541015625,2.44140625
1.2224999,-2.431910276412964,-1.2731167078018188,9.332598686218262,-10.8642578125,-28.1982421875,34.637451171875
1.2274999000000002,-1.6274585723876953,-2.3798365592956543,8.638877868652344,6.317138671875,-19.256591796875,39.337158203125
1.2324999,-0.41958385705947876,-2.807800054550171,8.662221908569336,13.5498046875,-11.53564453125,43.609619140625
1.2374999000000002,0.34356793761253357,-2.38462495803833,8.867524147033691,19.561767578125,-9.033203125,50.9033203125
1.2424999,0.9762357473373413,-1.2617442607879639,9.379284858703613,10.528564453125,-1.220703125,28.62548828125
1.2474999000000002,1.6154875755310059,-0.20051439106464386,9.801861763000488,0.823974609375,-0.762939453125,-6.04248046875
1.2524999,2.2643163204193115,0.11911153793334961,10.071209907531738,-1.190185546875,14.495849609375,-32.867431640625
1.2574999000000002,2.8227639198303223,0.0520738884806633,10.049661636352539,11.474609375,32.77587890625,-21.91162109375
1.2624999000000001,2.824559450149536,-0.31842881441116333,10.052654266357422,16.11328125,35.308837890625,-50.84228515625
1.2674999000000002,1.8794482946395874,-0.5650315880775452,9.9000244140625,2.86865234375,19.805908203125,-49.560546875
1.2724999000000001,0.4818331003189087,0.08619125932455063,9.965266227722168,-7.62939453125,-0.3662109375,-32.28759765625
1.2774999000000002,-1.2533645629882812,0.11851298063993454,9.884461402893066,-25.32958984375,-11.932373046875,-7.232666015625
1.2824999000000001,-2.3558945655822754,-0.3579331636428833,9.446322441101074,-31.768798828125,-19.71435546875,0.54931640625
1.2874999,-2.451662540435791,-1.2922704219818115,9.242815971374512,-13.671875,-27.862548828125,31.1279296875
1.2924999000000001,-1.7172411680221558,-2.3546974658966064,8.793304443359375,6.011962890625,-20.5078125,41.107177734375
1.2974999,-0.5632359385490417,-2.848501443862915,8.737040519714355,12.664794921875,-12.115478515625,42.05322265625
1.3024999000000002,0.2406172752380371,-2.454056739807129,9.000402450561523,19.561767578125,-9.674072265625,52.1240234375
1.3074999,0.8523358106613159,-1.3976151943206787,9.419387817382812,11.16943359375,-1.8310546875,33.5693359375
1.3124999000000002,1.5167267322540283,-0.2555810213088989,9.813833236694336,1.617431640625,-1.220703125,0.6103515625
1.3174999,2.234987258911133,0.06883329898118973,10.054450035095215,-1.953125,11.077880859375,-32.5927734375
1.3224999000000002,2.8568811416625977,0.06584054976701736,10.063427925109863,10.345458984375,32.379150390625,-22.216796875
1.3274999,2.0853497982025146,-0.49799394607543945,9.88386344909668,4.0283203125,21.881103515625,-50.262451171875
1.3324999000000002,0.7422025203704834,0.012569558806717396,9.827000617980957,-6.89697265625,1.28173828125,-33.477783203125
1.3374999,-1.0809820890426636,0.29628247022628784,9.78989028930664,-22.735595703125,-11.566162109375,-8.880615234375
1.3424999000000002,-2.230797529220581,-0.2513911724090576,9.43494987487793,-31.8603515625,-17.88330078125,-0.213623046875
1.3474999,-2.5097219944000244,-1.1186907291412354,9.267355918884277,-16.90673828125,-26.67236328125,26.79443359375
1.3524999000000002,-1.9446903467178345,-2.255936622619629,9.06863784790039,5.706787109375,-22.125244140625,42.266845703125
1.3574999,-0.7571662664413452,-2.8670566082000732,8.886079788208008,11.444091796875,-13.12255859375,40.374755859375
1.3624999000000002,0.053270988166332245,-2.5743653774261475,9.138069152832031,19.073486328125,-10.19287109375,52.6123046875
1.3674999,0.7655459642410278,-1.577778935432434,9.437943458557129,12.115478515625,-2.50244140625,37.109375
1.3724999000000002,1.488594889640808,-0.3357867896556854,9.804854393005371,2.777099609375,-1.03759765625,5.706787109375
1.3774999,2.2427685260772705,0.0520738884806633,10.003573417663574,-2.105712890625,8.6669921875,-30.975341796875
1.3824999000000002,3.074753522872925,-0.292691171169281,10.014945983886719,17.547607421875,37.445068359375,-44.281005859375
1.3874999000000001,2.2864625453948975,-0.4668693244457245,9.897629737854004,5.79833984375,24.566650390625,-51.7578125
1.3924999000000002,0.983418345451355,-0.3477577865123749,9.66419506072998,-6.53076171875,2.960205078125,-35.858154296875
1.3974999000000001,-0.8780734539031982,0.2687491476535797,9.649829864501953,-20.08056640625,-10.986328125,-13.3056640625
1.4024999000000002,-2.1326351165771484,-0.4118026793003082,9.358335494995117,-31.494140625,-16.448974609375,0.030517578125
1.4074999000000001,-2.562992811203003,-0.9385270476341248,9.197924613952637,-19.71435546875,-25.81787109375,22.15576171875
1.4124999,-2.0446481704711914,-1.9919757843017578,9.19552993774414,4.302978515625,-23.040771484375,42.236328125
1.4174999000000001,-0.9343371987342834,-2.607884168624878,8.941145896911621,10.223388671875,-13.946533203125,38.299560546875
1.4224999,-0.008379706181585789,-2.4666264057159424,9.178771018981934,18.585205078125,-10.589599609375,51.422119140625
1.4274999000000002,0.669179379940033,-1.6136919260025024,9.419387817382812,13.12255859375,-3.936767578125,38.970947265625
1.4324999,1.3515268564224243,-0.36332011222839355,9.812037467956543,3.72314453125,-0.732421875,9.70458984375
1.4374999000000002,2.1074960231781006,0.060453593730926514,9.997588157653809,-2.471923828125,5.9814453125,-28.656005859375
1.4424999,-2.499546527862549,-0.7332242727279663,9.097966194152832,-23.895263671875,-24.5361328125,15.899658203125
1.4474999000000002,-1.922544002532959,-1.6603789329528809,9.10993766784668,2.44140625,-24.444580078125,42.510986328125
1.4524999,-0.950498104095459,-2.3552958965301514,8.762179374694824,9.94873046875,-15.19775390625,38.14697265625
1.4574999000000002,0.1173158809542656,-2.295440912246704,9.066243171691895,18.310546875,-10.589599609375,50.4150390625
1.4624999,0.6171054840087891,-1.692102074623108,9.303269386291504,14.2822265625,-4.7607421875,42.572021484375
1.4674999000000002,1.1994950771331787,-0.4572925269603729,9.791088104248047,5.06591796875,-0.640869140625,15.045166015625
1.4724999,2.9688100814819336,-0.2693476974964142,9.998785018920898,17.181396484375,36.9873046875,-34.7900390625
1.4774999000000002,2.9688100814819336,-0.2693476974964142,9.998785018920898,17.181396484375,36.9873046875,-34.7900390625
1.4824999,2.5073277950286865,-0.4129997789859772,9.95209789276123,9.796142578125,29.35791015625,-54.107666015625
1.4874999000000002,1.158793568611145,-0.7128735780715942,9.734225273132324,-4.486083984375,7.965087890625,-37.59765625
1.4924999,-0.35075053572654724,0.4100070297718048,9.566033363342285,-14.95361328125,-8.697509765625,-19.805908203125
1.4974999000000002,-2.0201077461242676,-0.42018240690231323,9.481039047241211,-30.09033203125,-14.434814453125,0.091552734375
1.5024999,-2.4678235054016113,-0.5422866940498352,9.051279067993164,-26.30615234375,-23.712158203125,11.41357421875
1.5074999000000002,-2.118269920349121,-1.6729484796524048,9.1632080078125,-0.244140625,-25.7568359375,41.412353515625
1.5124999000000001,-1.1468225717544556,-2.473809003829956,8.770559310913086,9.368896484375,-16.7236328125,38.543701171875
1.5174999000000002,-0.05925649031996727,-2.5109190940856934,9.1260986328125,17.7001953125,-11.23046875,49.8046875
1.5224999000000001,0.5093663930892944,-1.9458874464035034,9.322422981262207,15.655517578125,-6.16455078125,46.875
1.5274999000000002,1.1306617259979248,-0.5943605899810791,9.807847023010254,6.256103515625,-0.274658203125,22.4609375
1.5324999000000001,2.6862943172454834,0.21667525172233582,10.183138847351074,2.716064453125,23.101806640625,-29.144287109375
1.5374999000000003,3.0783448219299316,-0.1604115068912506,9.944316864013672,16.632080078125,37.29248046875,-30.853271484375
1.5424999000000001,2.786850690841675,-0.28790274262428284,9.9185791015625,11.810302734375,31.92138671875,-53.070068359375
1.5474999,1.40180504322052,-0.667982280254364,9.747992515563965,-3.47900390625,10.772705078125,-38.51318359375
1.5524999000000002,-0.0694318488240242,0.518943190574646,9.579200744628906,-12.451171875,-6.89697265625,-22.8271484375
1.5574999,-1.8453309535980225,-0.27413609623908997,9.505578994750977,-28.38134765625,-13.85498046875,1.068115234375
1.5624999000000002,-2.406172752380371,-0.5464765429496765,8.900444984436035,-28.656005859375,-21.392822265625,5.55419921875
1.5674999,-2.2457611560821533,-1.764526605606079,8.919598579406738,-3.41796875,-25.7568359375,39.215087890625
1.5724999000000002,-1.3323732614517212,-2.694674015045166,8.487444877624512,9.27734375,-18.524169921875,39.48974609375
1.5774999,-0.23523031175136566,-2.7670986652374268,8.875306129455566,15.655517578125,-11.474609375,46.20361328125
1.5824999000000002,0.4207809567451477,-2.163161277770996,9.172186851501465,16.29638671875,-7.568359375,48.187255859375
1.5874999,1.0630255937576294,-0.7733271718025208,9.747992515563965,7.50732421875,0.030517578125,26.3671875
1.5924999000000002,2.5558102130889893,0.3130418658256531,10.168174743652344,1.007080078125,19.256591796875,-31.097412109375
1.5974999,3.006518840789795,-0.09516951441764832,9.93593692779541,15.228271484375,36.43798828125,-27.03857421875
1.6024999000000002,1.569997787475586,-0.6458359360694885,9.77013874053955,-1.52587890625,14.2822265625,-41.748046875
1.6074999,0.16340427100658417,0.30466216802597046,9.820416450500488,-10.467529296875,-4.5166015625,-27.7099609375
1.6124999000000002,-1.677138328552246,-0.15083470940589905,9.694721221923828,-27.34375,-13.18359375,-1.556396484375
1.6174999,-2.4217350482940674,-0.6338648796081543,9.144054412841797,-30.364990234375,-20.538330078125,2.685546875
1.6224999000000002,-2.3493103981018066,-1.692102074623108,8.92917537689209,-7.50732421875,-26.702880859375,35.70556640625
1.6274999,-1.5269020795822144,-2.7347769737243652,8.399457931518555,8.7890625,-20.01953125,40.6494140625
1.6324999000000002,-0.34596213698387146,-2.911349296569824,8.636484146118164,14.83154296875,-11.71875,44.525146484375
1.6374999000000001,0.3381809890270233,-2.3493103981018066,8.950722694396973,17.51708984375,-8.758544921875,51.025390625
1.6424999000000002,0.9971849918365479,-0.9971849918365479,9.558850288391113,8.697509765625,-0.518798828125,31.8603515625
1.6474999000000001,2.889801502227783,-0.18495208024978638,9.986215591430664,15.106201171875,35.369873046875,-50.6591796875
1.6524999000000002,1.7794904708862305,-0.5380968451499939,9.81143856048584,0.823974609375,18.00537109375,-42.90771484375
1.6574999000000001,0.4016273319721222,0.20949265360832214,9.946710586547852,-8.087158203125,-1.8310546875,-28.9306640625
1.6624999000000003,-1.3455413579940796,0.22505496442317963,9.96825885772705,-23.92578125,-12.451171875,-3.2958984375
1.6674999000000001,-2.3235726356506348,-0.4141969084739685,9.560646057128906,-31.06689453125,-18.402099609375,0.732421875
1.6724999,-2.364872694015503,-1.314416766166687,9.367314338684082,-12.237548828125,-25.604248046875,30.670166015625
1.6774999000000002,-1.657984733581543,-2.4390928745269775,8.908824920654297,7.99560546875,-21.728515625,42.327880859375
1.6824999,0.19632454216480255,-2.4408886432647705,9.040505409240723,17.9443359375,-9.58251953125,51.513671875
1.6874999000000002,0.8409633636474609,-1.313219666481018,9.477447509765625,10.19287109375,-1.739501953125,35.2783203125
1.6924999,2.278082847595215,0.1107318252325058,10.022128105163574,-1.708984375,10.986328125,-31.6162109375
1.6974999000000002,2.914940595626831,-0.004189853090792894,9.990405082702637,11.1083984375,33.233642578125,-22.94921875
1.7024999,3.0190882682800293,-0.28730419278144836,9.997588157653809,16.66259765625,37.04833984375,-48.370361328125
1.7074999000000002,2.057217836380005,-0.5021837949752808,9.837176322937012,3.2958984375,22.064208984375,-46.539306640625
1.7124999,0.7894880175590515,-0.1388636976480484,9.634865760803223,-7.415771484375,0.946044921875,-32.5927734375
1.7174999000000002,-1.0666168928146362,0.3250128924846649,9.564835548400879,-21.026611328125,-12.115478515625,-8.48388671875
1.7224999,-2.1697452068328857,-0.4082113802433014,9.10874080657959,-31.402587890625,-16.998291015625,0.762939453125
1.7274999000000002,-2.476203203201294,-1.0911574363708496,8.901641845703125,-17.303466796875,-24.505615234375,24.23095703125
1.7324999,-1.965639591217041,-2.227804660797119,8.880692481994629,6.8359375,-23.01025390625,43.45703125
1.7374999000000002,-0.8265981078147888,-2.787449359893799,8.76337718963623,11.688232421875,-13.61083984375,39.24560546875
1.7424999,-0.008978256024420261,-2.5240871906280518,9.117718696594238,18.035888671875,-10.07080078125,51.544189453125
1.7474999000000002,2.279279947280884,0.10055647045373917,10.00716495513916,-2.197265625,7.2021484375,-29.6630859375
1.7524999,2.964620351791382,0.08619125932455063,10.08078670501709,8.636474609375,30.853271484375,-23.101806640625
1.7574999000000002,3.1304187774658203,-0.3058592677116394,10.004171371459961,17.4560546875,37.567138671875,-43.76220703125
1.7624999000000001,-2.138620615005493,-0.8445546627044678,9.400833129882812,-30.57861328125,-15.655517578125,1.678466796875
1.7674999000000002,-2.540846586227417,-1.113303780555725,8.923788070678711,-21.97265625,-23.345947265625,16.9677734375
1.7724999000000001,-1.9171570539474487,-1.9602526426315308,8.920795440673828,4.425048828125,-24.4140625,43.212890625
1.7774999000000002,-0.9726444482803345,-2.5252842903137207,8.649053573608398,10.43701171875,-15.5029296875,38.39111328125
1.7824999000000001,0.07481880486011505,-2.3235726356506348,9.018359184265137,17.7001953125,-10.7421875,50.1708984375
1.7874999000000003,1.2102689743041992,-0.35075053572654724,9.830592155456543,4.302978515625,-0.762939453125,14.09912109375
1.7924999000000001,1.9626468420028687,0.07481880486011505,10.029909133911133,-2.471923828125,2.960205078125,-25.238037109375
1.7974999,2.7126305103302,0.08379705995321274,10.200496673583984,5.55419921875,27.252197265625,-25.360107421875
1.8024999000000002,3.0603883266448975,-0.29568392038345337,10.02811336517334,17.76123046875,38.4521484375,-37.933349609375
1.8074999,2.5049335956573486,-0.395043283700943,9.956287384033203,8.97216796875,29.296875,-51.33056640625
1.8124999000000002,1.12467622756958,-0.656609833240509,9.750386238098145,-6.04248046875,6.744384765625,-36.07177734375
1.8174999,-0.4076128304004669,0.4255693554878235,9.453505516052246,-14.34326171875,-9.33837890625,-19.866943359375
1.8224999000000002,-2.0147206783294678,-0.5093663930892944,9.302072525024414,-28.74755859375,-14.862060546875,3.5400390625
1.8274999,-2.4193408489227295,-0.8008604645729065,8.722675323486328,-26.031494140625,-21.453857421875,9.796142578125
1.8324999000000002,-2.0655975341796875,-1.9584569931030273,8.877699851989746,1.129150390625,-25.5126953125,41.290283203125
1.8374999,-1.1438298225402832,-2.6833014488220215,8.539519309997559,10.07080078125,-17.730712890625,38.9404296875
1.8424999000000002,-0.09457096457481384,-2.5941176414489746,9.030330657958984,16.357421875,-10.955810546875,48.065185546875
1.8474999,1.1839327812194824,-0.5303156971931458,9.847352027893066,5.859375,0.091552734375,21.17919921875
1.8524999000000002,1.9267338514328003,0.06224924325942993,10.04846477508545,-1.739501953125,1.007080078125,-18.798828125
1.8574999,2.7036523818969727,0.16819266974925995,10.214861869812012,3.082275390625,23.681640625,-28.656005859375
1.8624999000000002,3.09151291847229,-0.19572599232196808,9.964667320251465,17.303466796875,38.02490234375,-31.92138671875
1.8674999,2.765302896499634,-0.2819172441959381,9.931148529052734,11.90185546875,32.562255859375,-52.581787109375
1.8724999000000002,1.3581109046936035,-0.6344634294509888,9.767744064331055,-4.364013671875,10.986328125,-38.51318359375
1.8774999,-0.07721300423145294,0.629675030708313,9.852140426635742,-11.71875,-6.744384765625,-27.34375
1.8824999000000002,-1.877652645111084,-0.14006079733371735,9.728240013122559,-26.519775390625,-13.336181640625,1.40380859375
1.8874999000000001,-2.4618380069732666,-0.47884035110473633,9.271546363830566,-28.045654296875,-20.172119140625,6.2255859375
1.8924999000000002,-2.30022931098938,-1.6663644313812256,9.181164741516113,-3.72314453125,-25.7568359375,38.02490234375
1.8974999000000001,-1.4449007511138916,-2.6198551654815674,8.616133689880371,8.60595703125,-19.134521484375,38.02490234375
1.9024999000000002,-0.3034650683403015,-2.6803088188171387,8.91181755065918,13.763427734375,-11.444091796875,43.701171875
1.9074999000000001,1.0809820890426636,-0.7541735172271729,9.677363395690918,7.38525390625,-0.42724609375,25.146484375
1.9124999000000003,1.7872716188430786,-0.0347159244120121,9.923367500305176,-0.640869140625,-0.8544921875,-11.627197265625
1.9174999000000001,2.5450363159179688,0.2579752206802368,10.06043529510498,0.579833984375,18.00537109375,-30.853271484375
1.9224999,3.005321741104126,-0.13527239859104156,9.86351203918457,14.83154296875,35.614013671875,-26.092529296875
1.9274999000000002,2.9203274250030518,-0.22685061395168304,9.873687744140625,14.312744140625,35.15625,-52.154541015625
1.9324999,1.6400281190872192,-0.5889736413955688,9.756970405578613,-1.007080078125,16.387939453125,-40.83251953125
1.9374999000000002,0.27054479718208313,0.2059013396501541,9.833584785461426,-9.46044921875,-3.326416015625,-30.2734375
1.9424999,-1.5340847969055176,0.0017956512747332454,9.718663215637207,-24.35302734375,-13.153076171875,-2.655029296875
1.9474999000000002,-2.389413356781006,-0.7122750282287598,9.188347816467285,-29.72412109375,-18.707275390625,2.288818359375
1.9524999,-2.366069793701172,-1.6316484212875366,8.951920509338379,-9.3994140625,-25.08544921875,33.111572265625
1.9574999000000002,-1.5640122890472412,-2.607884168624878,8.494627952575684,8.148193359375,-20.5078125,40.069580078125
1.9624999,-0.47405192255973816,-2.876633405685425,8.658031463623047,11.932373046875,-11.90185546875,39.306640625
1.9674999000000002,1.6160861253738403,-0.1388636976480484,9.884461402893066,0.67138671875,-1.007080078125,-4.5166015625
1.9724999,2.3271639347076416,0.16340427100658417,10.107122421264648,-1.068115234375,12.8173828125,-31.646728515625
1.9774999000000002,2.898181200027466,-0.0520738884806633,9.99459457397461,12.02392578125,32.77587890625,-22.918701171875
1.9824999,2.93888258934021,-0.2908954918384552,10.019135475158691,16.021728515625,35.919189453125,-49.25537109375
1.9874999000000002,1.931522250175476,-0.524330198764801,9.825204849243164,2.105712890625,20.56884765625,-44.219970703125
1.9924999,0.639850378036499,0.04908113554120064,9.768941879272461,-7.75146484375,-0.18310546875,-31.79931640625
1.9974999000000002,-1.1629834175109863,0.35733461380004883,9.793481826782227,-21.6064453125,-12.26806640625,-6.988525390625
2.0024999,-2.2230162620544434,-0.3250128924846649,9.386467933654785,-30.70068359375,-17.303466796875,1.251220703125
2.0074999,-2.4366986751556396,-1.1115081310272217,9.255983352661133,-15.289306640625,-24.4140625,26.397705078125
2.0124999000000003,-1.8956091403961182,-2.2870612144470215,9.081805229187012,7.01904296875,-22.64404296875,42.449951171875
2.0174999000000002,-0.7571662664413452,-2.851494312286377,8.90762710571289,11.199951171875,-13.336181640625,38.116455078125
2.0224999,2.294243812561035,0.08319851011037827,9.979631423950195,-2.38037109375,7.75146484375,-30.21240234375
2.0274999,2.934094190597534,0.05147533491253853,10.001178741455078,9.063720703125,31.005859375,-23.37646484375
2.0324999000000004,3.109469413757324,-0.28311434388160706,9.985616683959961,17.425537109375,37.628173828125,-44.3115234375
2.0374999000000003,2.2403743267059326,-0.4776432514190674,9.845556259155273,5.06591796875,24.627685546875,-47.821044921875
2.0424999,0.9786299467086792,-0.585382342338562,9.93354320526123,-7.2021484375,2.50244140625,-34.271240234375
2.0474999,-0.8236053586006165,0.13946224749088287,9.564835548400879,-18.035888671875,-11.077880859375,-12.786865234375
2.0524999,-0.8236053586006165,0.13946224749088287,9.564835548400879,-18.035888671875,-11.077880859375,-12.786865234375
2.0574999000000003,-2.0626046657562256,-0.7643488645553589,9.402029991149902,-30.33447265625,-15.594482421875,1.983642578125
2.0624999,-2.451662540435791,-1.1139023303985596,8.810662269592285,-20.1416015625,-22.94921875,19.134521484375
2.0674999,-1.8399440050125122,-2.0021512508392334,8.728660583496094,5.126953125,-23.895263671875,42.755126953125
2.0724999,0.11133038252592087,-2.318784236907959,8.923788070678711,17.669677734375,-10.406494140625,49.346923828125
2.0774999000000003,0.6709750294685364,-1.5418659448623657,9.303269386291504,12.359619140625,-4.241943359375,38.726806640625
2.0824999,2.0183119773864746,0.07781155407428741,10.063427925109863,-2.410888671875,4.7607421875,-27.64892578125
2.0874999,2.7269957065582275,0.10714052617549896,10.203489303588867,6.16455078125,28.3203125,-24.47509765625
2.0924999,3.0131027698516846,-0.30945056676864624,10.086173057556152,17.547607421875,37.261962890625,-39.1845703125
2.0974999000000003,2.428318977355957,-0.42377370595932007,9.965864181518555,7.99560546875,27.89306640625,-51.26953125
2.1024999,1.0271124839782715,-0.7374141216278076,9.787496566772461,-6.011962890625,5.92041015625,-36.285400390625
2.1074999,-0.5303156971931458,0.1975216418504715,9.518747329711914,-15.411376953125,-9.613037109375,-19.4091796875
2.1124999,-2.101510524749756,-0.7362170219421387,9.349956512451172,-29.571533203125,-14.34326171875,1.953125
2.1174999000000003,-2.473809003829956,-0.9780313968658447,8.844779968261719,-24.7802734375,-22.735595703125,13.397216796875
2.1224999,-2.0404584407806396,-1.9925743341445923,8.941744804382324,1.434326171875,-25.360107421875,41.595458984375
2.1274999,-0.0077811554074287415,-2.4588451385498047,9.026140213012695,17.486572265625,-11.199951171875,49.25537109375
2.1324999,-0.0077811554074287415,-2.4588451385498047,9.026140213012695,17.486572265625,-11.199951171875,49.25537109375
2.1374999000000003,0.5608417391777039,-1.7968484163284302,9.270947456359863,14.434814453125,-6.195068359375,44.586181640625
2.1424999000000002,1.1959037780761719,-0.4602852761745453,9.818621635437012,5.401611328125,-0.152587890625,18.5546875
2.1474999,1.9279309511184692,0.0628477931022644,10.019135475158691,-2.288818359375,0.91552734375,-21.759033203125
2.1524999,2.6587610244750977,0.16639702022075653,10.210671424865723,3.570556640625,24.871826171875,-27.923583984375
2.1574999000000004,3.0573954582214355,-0.24361002445220947,9.989806175231934,16.9677734375,37.841796875,-32.745361328125
2.1624999000000003,-1.8698714971542358,-0.2783259451389313,9.57321548461914,-28.289794921875,-12.481689453125,0.457763671875
2.1674999,-2.427720546722412,-0.47225627303123474,9.11233139038086,-27.435302734375,-21.636962890625,8.6669921875
2.1724999,-0.18375498056411743,-2.629431962966919,9.056666374206543,16.204833984375,-10.498046875,45.41015625
2.1774999000000004,0.47584760189056396,-2.0464439392089844,9.255983352661133,16.11328125,-7.38525390625,45.501708984375
2.1824999000000003,1.1252747774124146,-0.6787561774253845,9.761758804321289,6.988525390625,-0.244140625,20.8740234375
2.1874999,1.811812162399292,-0.016160860657691956,9.96825885772705,-1.52587890625,-0.3662109375,-17.547607421875
2.1924999,2.5528175830841064,0.2998737692832947,10.119093894958496,1.64794921875,21.05712890625,-29.23583984375
2.1974999,2.9478609561920166,-0.1412578970193863,9.910199165344238,15.5029296875,35.46142578125,-27.740478515625
2.2024999000000003,2.762310266494751,-0.22505496442317963,9.882067680358887,13.00048828125,32.867431640625,-53.253173828125
2.2074999,1.4227544069290161,-0.6739677786827087,9.77253246307373,-2.532958984375,12.847900390625,-40.283203125
2.2124999,0.08319851011037827,0.333991140127182,9.791088104248047,-10.528564453125,-5.18798828125,-27.679443359375
2.2174999,-1.7256208658218384,-0.19632454216480255,9.64923095703125,-26.611328125,-13.031005859375,-0.396728515625
2.2224999000000003,-2.387617588043213,-0.6877344250679016,9.096769332885742,-29.60205078125,-20.1416015625,3.448486328125
2.2274999,0.3579331636428833,-2.273294448852539,9.003395080566406,16.937255859375,-8.636474609375,50.1708984375
2.2324999,1.0205284357070923,-0.9145850539207458,9.61212158203125,8.36181640625,-0.42724609375,29.815673828125
2.2374999,1.7220295667648315,-0.055665191262960434,9.931148529052734,-0.42724609375,-1.739501953125,-8.30078125
2.2424999000000003,2.4420857429504395,0.2867056429386139,10.123882293701172,-0.396728515625,16.387939453125,-31.67724609375
2.2474999,2.980182647705078,-0.06464344263076782,9.964069366455078,14.373779296875,35.919189453125,-25.146484375
2.2524999,2.9233202934265137,-0.19692309200763702,9.959280967712402,15.167236328125,35.675048828125,-50.933837890625
2.2574999,1.7304092645645142,-0.5440823435783386,9.806650161743164,-0.6103515625,16.6015625,-42.724609375
2.2624999000000003,0.37888240814208984,0.2651578485965729,9.928155899047852,-9.246826171875,-2.960205078125,-31.8603515625
2.2674999000000002,-1.3922282457351685,0.2106897532939911,9.967659950256348,-23.895263671875,-12.420654296875,-4.0283203125
2.2724999,-2.3349452018737793,-0.49140989780426025,9.533711433410645,-30.487060546875,-18.12744140625,2.13623046875
2.2774999,-0.5590460896492004,-2.9053637981414795,8.860940933227539,12.420654296875,-12.39013671875,39.398193359375
2.2824999000000004,0.1885433793067932,-2.382829189300537,9.090784072875977,17.547607421875,-9.82666015625,50.6591796875
2.2874999000000003,0.8595184087753296,-1.2539631128311157,9.50617790222168,9.765625,-1.495361328125,32.958984375
2.2924999,1.5616180896759033,-0.20470423996448517,9.817423820495605,1.03759765625,-1.52587890625,-1.89208984375
2.2974999,2.321777105331421,0.11971008777618408,10.021530151367188,-1.52587890625,12.237548828125,-32.073974609375
2.3024999000000004,2.93888258934021,-0.033518824726343155,9.961674690246582,11.566162109375,34.027099609375,-23.13232421875
2.3074999000000003,3.0346505641937256,-0.262763649225235,9.971251487731934,16.693115234375,37.29248046875,-48.27880859375
2.3124999,2.0272903442382812,-0.5003881454467773,9.815628051757812,2.227783203125,20.6298828125,-47.088623046875
2.3174999,0.739209771156311,-0.004189853090792894,9.68694019317627,-8.270263671875,-0.244140625,-35.552978515625
2.3224999,-1.9363106489181519,-2.255936622619629,8.934561729431152,6.072998046875,-22.491455078125,41.656494140625
2.3274999000000003,-0.788889467716217,-2.831143617630005,8.819042205810547,11.199951171875,-12.908935546875,37.41455078125
2.3324999,0.058059390634298325,-2.5468320846557617,9.132682800292969,18.5546875,-10.19287109375,51.055908203125
2.3374999,0.7613561153411865,-1.5388731956481934,9.449316024780273,11.566162109375,-3.0517578125,36.31591796875
2.3424999,1.4652514457702637,-0.2795230448246002,9.833584785461426,2.471923828125,-1.3427734375,5.0048828125
2.3474999000000003,2.2206220626831055,0.11312603205442429,10.036493301391602,-2.471923828125,7.6904296875,-30.120849609375
2.3524999,2.8670566082000732,0.09217676520347595,10.088567733764648,8.331298828125,30.70068359375,-23.3154296875
2.3574999,3.0639796257019043,-0.25677812099456787,10.02691650390625,17.425537109375,37.109375,-43.182373046875
2.3624999,2.2589292526245117,-0.45908817648887634,9.87967300415039,5.401611328125,24.47509765625,-49.62158203125
2.3674999000000003,1.0121487379074097,-0.6602011322975159,9.892242431640625,-7.293701171875,2.9296875,-36.0107421875
2.3724999,-0.7709329724311829,0.09876082092523575,9.513958930969238,-18.157958984375,-10.650634765625,-14.862060546875
2.3774999,-2.0715830326080322,-0.8289923667907715,9.322422981262207,-30.76171875,-15.228271484375,1.434326171875
2.3824999,0.5907692909240723,-1.6124948263168335,9.252392768859863,13.12255859375,-4.180908203125,41.44287109375
2.3874999000000003,1.2006921768188477,-0.3555389642715454,9.821614265441895,4.150390625,-0.732421875,12.451171875
2.3924999000000002,1.9381062984466553,0.08978256583213806,10.054450035095215,-2.655029296875,3.5400390625,-26.702880859375
2.3974999,2.6856956481933594,0.12749123573303223,10.231620788574219,5.706787109375,28.045654296875,-25.482177734375
2.4024999,2.497750997543335,-0.4016273319721222,9.95748519897461,8.544921875,28.25927734375,-52.30712890625
2.4074999000000004,1.1186907291412354,-0.706289529800415,9.75517463684082,-6.2255859375,5.9814453125,-38.9404296875
2.4124999000000003,-0.4513070285320282,0.3106476664543152,9.648633003234863,-15.411376953125,-8.6669921875,-21.392822265625
2.4174999,-2.1074960231781006,-0.5734112858772278,9.50617790222168,-29.84619140625,-13.5498046875,1.556396484375
2.4224999,0.5817909836769104,-1.8531121015548706,9.324816703796387,14.95361328125,-6.072998046875,44.921875
2.4274999000000004,1.2018892765045166,-0.5003881454467773,9.820416450500488,5.7373046875,-0.396728515625,18.524169921875
2.4324999000000003,1.8938134908676147,0.07302315533161163,10.000580787658691,-2.44140625,0.67138671875,-21.240234375
2.4374999,2.6162638664245605,0.2017114907503128,10.18493366241455,2.99072265625,24.4140625,-28.3203125
2.4424999,3.0107085704803467,-0.1951274424791336,9.952696800231934,16.845703125,37.445068359375,-31.8603515625
2.4474999,2.6443958282470703,-0.3214215636253357,9.908403396606445,11.41357421875,31.25,-53.03955078125
2.4524999000000003,1.315613865852356,-0.6829460263252258,9.730035781860352,-4.7607421875,9.246826171875,-40.34423828125
2.4574999,-0.10953472554683685,0.5386953949928284,9.567828178405762,-12.8173828125,-6.7138671875,-25.5126953125
2.4624999,-1.878849744796753,-0.2711433470249176,9.457097053527832,-28.38134765625,-13.336181640625,1.190185546875
2.4674999,-2.23199462890625,-1.756745457649231,8.920196533203125,-2.50244140625,-26.18408203125,38.87939453125
2.4724999000000003,-1.3251906633377075,-2.6671407222747803,8.522759437561035,9.490966796875,-18.00537109375,38.75732421875
2.4774999,-0.17896658182144165,-2.7329812049865723,8.936956405639648,16.571044921875,-10.80322265625,46.356201171875
2.4824999,0.44532153010368347,-2.1057004928588867,9.210494041442871,16.17431640625,-7.26318359375,48.370361328125
2.4874999,1.0881646871566772,-0.7038952708244324,9.786897659301758,7.293701171875,-0.244140625,25.604248046875
2.4924999000000003,1.7920600175857544,0.02992752194404602,10.002974510192871,-1.46484375,-1.495361328125,-13.97705078125
2.4974999,2.6013002395629883,0.3298012912273407,10.157401084899902,0.823974609375,20.08056640625,-31.036376953125
2.5024999,3.0352492332458496,-0.1215057373046875,9.941922187805176,15.625,37.109375,-27.313232421875
2.5074999,2.9005753993988037,-0.19213469326496124,9.900622367858887,13.763427734375,34.149169921875,-51.8798828125
2.5124999000000003,1.5406688451766968,-0.639850378036499,9.78989028930664,-2.685546875,13.12255859375,-41.93115234375
2.5174999000000002,0.13347674906253815,0.38307225704193115,10.050858497619629,-10.3759765625,-4.39453125,-30.609130859375
2.5224999,-1.6735470294952393,-0.09277531504631042,10.00955867767334,-25.543212890625,-12.451171875,-0.8544921875
2.5274999,-2.339733600616455,-1.670554280281067,9.39365005493164,-6.622314453125,-25.7568359375,35.0341796875
2.5324999000000004,-1.5424644947052002,-2.610278367996216,8.683769226074219,8.4228515625,-19.500732421875,39.48974609375
2.5374999000000003,-0.39624038338661194,-2.8125884532928467,8.813654899597168,13.763427734375,-11.260986328125,41.595458984375
2.5424999,0.3208230137825012,-2.1924901008605957,8.980650901794434,16.41845703125,-8.97216796875,48.675537109375
2.5474999,1.0073603391647339,-0.9397241473197937,9.537900924682617,8.575439453125,-0.54931640625,28.533935546875
2.5524999000000004,1.7094600200653076,-0.07541735470294952,9.843161582946777,-0.091552734375,-1.373291015625,-7.9345703125
2.5574999000000003,2.4145524501800537,0.2298433631658554,10.052056312561035,-0.274658203125,16.387939453125,-32.04345703125
2.5624999,2.958634853363037,-0.09457096457481384,9.926360130310059,13.946533203125,35.58349609375,-23.92578125
2.5674999,2.914940595626831,-0.22685061395168304,9.947309494018555,15.777587890625,35.7666015625,-51.239013671875
2.5724999,1.789067268371582,-0.5237316489219666,9.812037467956543,-0.42724609375,16.78466796875,-45.806884765625
2.5774999000000003,0.49320554733276367,0.2992752194404602,9.806650161743164,-9.27734375,-2.166748046875,-36.163330078125
2.5824999,-1.7585411071777344,-2.5067291259765625,8.65623664855957,6.927490234375,-20.81298828125,40.34423828125
2.5874999,-0.5985504388809204,-2.965817451477051,8.711302757263184,11.77978515625,-11.810302734375,38.482666015625
2.5924999,0.15981295704841614,-2.4869771003723145,9.032125473022461,17.578125,-10.1318359375,50.10986328125
2.5974999000000003,0.8553285598754883,-1.37906014919281,9.488221168518066,10.3759765625,-2.3193359375,32.28759765625
2.6024999,1.5604209899902344,-0.20290859043598175,9.84495735168457,1.28173828125,-1.953125,-0.152587890625
2.6074999,2.3092074394226074,0.11911153793334961,10.051457405090332,-1.953125,11.016845703125,-31.402587890625
2.6124999,2.9107506275177,0.002394201699644327,10.025120735168457,10.528564453125,32.745361328125,-22.64404296875
2.6174999000000003,3.047818660736084,-0.2795230448246002,10.018536567687988,17.27294921875,36.834716796875,-46.295166015625
2.6224999,2.0907366275787354,-0.5201402902603149,9.862914085388184,3.265380859375,21.6064453125,-48.27880859375
2.6274999,0.8690952062606812,-0.3357867896556854,9.595361709594727,-8.148193359375,0.6103515625,-36.468505859375
2.6324999,-2.5306711196899414,-1.1893197298049927,9.01476764678955,-17.913818359375,-25.0244140625,22.3388671875
2.6374999000000003,-1.9255367517471313,-2.2260091304779053,8.965087890625,5.79833984375,-22.52197265625,42.022705078125
2.6424999000000002,-0.8517372608184814,-2.7682957649230957,8.862735748291016,10.833740234375,-13.092041015625,37.109375
2.6474999,-0.8517372608184814,-2.7682957649230957,8.862735748291016,10.833740234375,-13.092041015625,37.109375
2.6524999,0.07960720360279083,-2.473809003829956,9.145252227783203,18.00537109375,-10.43701171875,50.47607421875
2.6574999000000004,0.6973112225532532,-1.5538369417190552,9.480440139770508,11.749267578125,-3.5400390625,38.116455078125
2.6624999000000003,1.3377602100372314,-0.292691171169281,9.893440246582031,2.99072265625,-1.40380859375,8.36181640625
2.6674999,2.1140801906585693,0.09636662155389786,10.06462574005127,-2.593994140625,5.7373046875,-28.9306640625
2.6724999,2.806602954864502,0.07781155407428741,10.14782428741455,7.4462890625,29.96826171875,-24.017333984375
2.6774999000000004,3.072359323501587,-0.2801215946674347,10.032901763916016,18.00537109375,37.53662109375,-40.283203125
2.6824999000000003,2.346317768096924,-0.4471171796321869,9.907206535339355,6.683349609375,25.7568359375,-50.23193359375
2.6874999,-2.4384944438934326,-0.9403226971626282,8.796895980834961,-22.705078125,-23.37646484375,14.923095703125
2.6924999,-1.9345149993896484,-1.8997989892959595,8.83699893951416,3.631591796875,-24.4140625,41.8701171875
2.6974999,-0.9780313968658447,-2.5264813899993896,8.599373817443848,9.70458984375,-15.19775390625,36.529541015625
2.7024999000000003,0.06464344263076782,-2.3564929962158203,9.025542259216309,16.9677734375,-10.772705078125,49.072265625
2.7074999,0.5823895931243896,-1.6645687818527222,9.333795547485352,13.153076171875,-5.0048828125,43.0908203125
2.7124999,1.206079125404358,-0.3878606855869293,9.856329917907715,4.7607421875,-0.732421875,16.54052734375
2.7174999,1.953070044517517,0.07422025501728058,10.059837341308594,-2.655029296875,2.0751953125,-23.956298828125
2.7224999000000003,3.0609867572784424,-0.27653029561042786,10.022128105163574,17.669677734375,38.02490234375,-34.393310546875
2.7274999,2.558803081512451,-0.40880993008613586,9.941324234008789,9.765625,29.4189453125,-52.337646484375
2.7324999,-0.24839842319488525,0.4686649739742279,9.633668899536133,-13.580322265625,-7.9345703125,-24.566650390625
2.7374999,-1.942894697189331,-0.4429273009300232,9.509170532226562,-28.289794921875,-13.3056640625,2.44140625
2.7424999000000003,-2.4193408489227295,-0.7709329724311829,9.084199905395508,-26.4892578125,-21.392822265625,9.185791015625
2.7474999,-2.167949676513672,-1.9434932470321655,9.151836395263672,0.1220703125,-25.421142578125,39.73388671875
2.7524999,-1.2270283699035645,-2.7323827743530273,8.750208854675293,9.063720703125,-16.6015625,36.92626953125
2.7574999,-0.1364694982767105,-2.671929121017456,9.12729549407959,15.533447265625,-10.43701171875,45.867919921875
2.7624999000000003,0.49559974670410156,-1.9764134883880615,9.32421875,14.83154296875,-7.14111328125,45.562744140625
2.7674999000000002,1.1354501247406006,-0.5889736413955688,9.82879638671875,6.65283203125,-0.579833984375,20.81298828125
2.7724999,1.8399440050125122,0.060453593730926514,9.999981880187988,-1.77001953125,-0.152587890625,-18.157958984375
2.7774999,2.625840663909912,0.25498247146606445,10.143633842468262,1.8310546875,22.308349609375,-29.510498046875
2.7824999000000004,3.0184898376464844,-0.1496376097202301,9.932944297790527,16.29638671875,36.62109375,-28.717041015625
2.7874999000000003,2.7976245880126953,-0.25318682193756104,9.895236015319824,12.87841796875,32.440185546875,-53.1005859375
2.7924999,0.03651157766580582,0.46986207365989685,9.818022727966309,-11.260986328125,-5.645751953125,-29.754638671875
2.7974999,-1.8076223134994507,-0.166995570063591,9.67077922821045,-26.947021484375,-13.031005859375,-0.30517578125
2.8024999000000004,0.383670836687088,-2.1775264739990234,8.988431930541992,16.66259765625,-8.453369140625,49.652099609375
2.8074999000000003,1.0384849309921265,-0.849941611289978,9.624691009521484,8.453369140625,-0.518798828125,28.01513671875
2.8124999,1.7262194156646729,-0.0017956512747332454,9.946112632751465,-0.518798828125,-1.678466796875,-9.918212890625
2.8174999,2.410961151123047,0.3166331648826599,10.143633842468262,-0.335693359375,17.364501953125,-31.951904296875
2.8224999,2.9448680877685547,-0.05746084079146385,9.979631423950195,14.068603515625,35.552978515625,-24.566650390625
2.8274999000000003,2.8622682094573975,-0.21667525172233582,9.961075782775879,15.167236328125,35.125732421875,-50.994873046875
2.8324999,-1.3832499980926514,-0.002394201699644327,9.916783332824707,-24.10888671875,-12.02392578125,-4.302978515625
2.8374999,-2.3331496715545654,-0.6715735793113708,9.422979354858398,-30.609130859375,-18.524169921875,2.9296875
2.8424999,-2.337938070297241,-1.611896276473999,9.260173797607422,-10.284423828125,-25.93994140625,31.097412109375
2.8474999000000003,-1.669357180595398,-2.583942174911499,8.773551940917969,8.087158203125,-20.5078125,40.52734375
2.8524999,-0.5512649416923523,-2.898181200027466,8.783727645874023,12.786865234375,-11.749267578125,40.10009765625
2.8574999,0.1777694821357727,-2.3253684043884277,9.02015495300293,17.364501953125,-10.040283203125,50.811767578125
2.8624999,0.8403648138046265,-1.1803414821624756,9.48762321472168,9.979248046875,-1.77001953125,33.26416015625
2.8674999000000003,1.544858694076538,-0.09816227108240128,9.822811126708984,0.91552734375,-2.0751953125,-0.732421875
2.8724999,2.3116016387939453,0.18914192914962769,10.037092208862305,-1.922607421875,11.3525390625,-31.768798828125
2.8774999,2.936488389968872,-0.011971008032560349,9.982624053955078,11.3525390625,33.477783203125,-23.5595703125
2.8824999,-1.0791864395141602,0.16998831927776337,9.563039779663086,-20.20263671875,-11.8408203125,-9.674072265625
2.8874999000000003,-2.1523873805999756,-0.71766197681427,9.027935981750488,-31.06689453125,-16.41845703125,2.5634765625
2.8924999000000002,-2.449866771697998,-1.3611036539077759,8.868123054504395,-16.082763671875,-24.200439453125,23.5595703125
2.8974999,-1.8818424940109253,-2.4175450801849365,8.793902397155762,7.26318359375,-22.552490234375,42.1142578125
2.9024999,-0.8080430626869202,-2.8610711097717285,8.728660583496094,11.23046875,-13.092041015625,37.506103515625
2.9074999000000004,0.06404489278793335,-2.497152328491211,9.071630477905273,17.669677734375,-10.43701171875,50.84228515625
2.9124999000000003,0.7122750282287598,-1.4616601467132568,9.466673851013184,11.53564453125,-2.471923828125,38.482666015625
2.9174999,1.4221558570861816,-0.20051439106464386,9.864709854125977,2.655029296875,-1.068115234375,7.537841796875
2.9224999,2.2188265323638916,0.1628057211637497,10.06043529510498,-2.50244140625,7.2021484375,-29.84619140625
2.9274999000000004,2.89339280128479,0.043095629662275314,10.104129791259766,8.880615234375,31.951904296875,-24.261474609375
2.9324999000000003,3.156156301498413,-0.2621650993824005,10.034697532653809,18.951416015625,39.154052734375,-42.572021484375
2.9374999,-2.2014684677124023,-0.8008604645729065,9.273940086364746,-29.022216796875,-14.068603515625,4.241943359375
2.9424999,-2.476203203201294,-0.9379284977912903,8.837596893310547,-20.3857421875,-23.529052734375,17.15087890625
2.9474999,-1.9524714946746826,-1.9171570539474487,8.864531517028809,4.45556640625,-23.8037109375,40.985107421875
2.9524999000000003,-0.9846154451370239,-2.4881742000579834,8.666411399841309,8.7890625,-14.129638671875,35.003662109375
2.9574999,0.08798690885305405,-2.2475569248199463,9.067440032958984,16.082763671875,-10.528564453125,48.03466796875
2.9624999,0.6482301354408264,-1.5795745849609375,9.378087997436523,12.451171875,-5.401611328125,39.459228515625
2.9674999,1.2767080068588257,-0.3232172429561615,9.858723640441895,4.39453125,-0.396728515625,12.481689453125
2.9724999000000003,2.0033483505249023,0.08738835901021957,10.050858497619629,-2.25830078125,3.753662109375,-24.7802734375
2.9774999,2.65097975730896,0.04249707981944084,10.205883026123047,4.974365234375,26.91650390625,-25.848388671875
2.9824999,-0.32022446393966675,0.595557689666748,9.633070945739746,-13.397216796875,-8.60595703125,-25.08544921875
2.9874999,-1.9632453918457031,-0.34177228808403015,9.502586364746094,-27.587890625,-14.190673828125,3.875732421875
2.9924999000000003,-2.3989901542663574,-0.6422445774078369,9.03631591796875,-26.275634765625,-20.965576171875,7.99560546875
2.9974999,-2.1320366859436035,-1.8136078119277954,9.113529205322266,0.396728515625,-25.238037109375,39.520263671875
3.0024999,-1.2204443216323853,-2.629431962966919,8.695141792297363,9.33837890625,-17.15087890625,37.322998046875
3.0074999,-0.1538274586200714,-2.587533473968506,9.120112419128418,15.07568359375,-10.8642578125,45.562744140625
3.0124999000000003,0.47165772318840027,-1.923741102218628,9.320627212524414,13.7939453125,-7.354736328125,46.2646484375
3.0174999000000002,1.1115081310272217,-0.5722141861915588,9.84615421295166,6.439208984375,-0.457763671875,23.74267578125
3.0224999,1.8567034006118774,0.04249707981944084,10.017339706420898,-1.52587890625,-0.579833984375,-16.021728515625
3.0274999,2.6803088188171387,0.16340427100658417,10.15021800994873,1.89208984375,22.0947265625,-30.33447265625
3.0324999000000004,-1.766920804977417,-0.2082955539226532,9.673172950744629,-25.634765625,-12.51220703125,-0.518798828125
3.0374999000000003,-2.453458309173584,-0.8349778652191162,9.117119789123535,-29.022216796875,-19.1650390625,4.913330078125
3.0424999,2.3756465911865234,0.2801215946674347,10.113107681274414,-0.67138671875,16.54052734375,-32.073974609375
3.0474999,-2.3930046558380127,-1.4113819599151611,8.983044624328613,-11.444091796875,-25.848388671875,29.541015625
3.0524999000000004,-1.7968484163284302,-2.561197280883789,8.683171272277832,7.50732421875,-20.782470703125,39.886474609375
3.0574999000000003,-0.6524199843406677,-2.964620351791382,8.720879554748535,11.77978515625,-11.627197265625,38.238525390625
3.0624999,0.09457096457481384,-2.477400302886963,9.051877975463867,16.90673828125,-10.43701171875,50.140380859375
3.0674999,0.8026561141014099,-1.3563152551651,9.48762321472168,10.1318359375,-2.410888671875,33.02001953125
3.0724999000000004,1.5328876972198486,-0.14245499670505524,9.831789016723633,1.556396484375,-1.89208984375,1.77001953125
3.0774999000000003,2.3020248413085938,0.16998831927776337,10.036493301391602,-2.25830078125,9.857177734375,-31.158447265625
3.0824999,3.048417329788208,-0.2472013235092163,10.022128105163574,17.4560546875,36.590576171875,-45.013427734375
3.0874999,2.0626046657562256,-0.5099649429321289,9.882665634155273,3.0517578125,21.575927734375,-46.112060546875
3.0924999,0.8822633028030396,-0.5267243981361389,9.925761222839355,-8.514404296875,0.8544921875,-34.97314453125
3.0974999000000003,-0.8804676532745361,0.2190694510936737,9.610923767089844,-17.852783203125,-11.16943359375,-12.481689453125
3.1024999,-2.0416555404663086,-0.7948749661445618,9.383475303649902,-30.059814453125,-15.533447265625,3.570556640625
3.1074999,-2.3564929962158203,-1.113303780555725,8.85675048828125,-18.49365234375,-23.0712890625,19.683837890625
3.1124999,-1.7411831617355347,-2.036268472671509,8.740632057189941,6.378173828125,-23.101806640625,41.9921875
3.1174999000000003,-0.8259995579719543,-2.56000018119812,8.59997272491455,10.406494140625,-13.641357421875,36.2548828125
3.1224999,3.071162223815918,-0.2825157940387726,10.0580415725708,18.37158203125,38.116455078125,-38.970947265625
3.1274999,2.366668462753296,-0.4279635548591614,9.947309494018555,7.080078125,26.30615234375,-50.1708984375
3.1324999,1.016338586807251,-0.6488286852836609,9.767146110534668,-7.659912109375,4.2724609375,-38.604736328125
3.1374999000000003,-0.5273229479789734,0.4800374507904053,9.587580680847168,-14.984130859375,-9.521484375,-23.0712890625
3.1424999000000002,-2.117072820663452,-0.5662286877632141,9.388263702392578,-28.289794921875,-13.336181640625,3.96728515625
3.1474999,-2.427121877670288,-0.7386112213134766,8.987833023071289,-23.162841796875,-22.125244140625,13.48876953125
3.1524999,-2.0458452701568604,-1.8249802589416504,9.087791442871094,2.74658203125,-24.505615234375,40.4052734375
3.1574999000000004,-1.0570400953292847,-2.5097219944000244,8.789712905883789,8.85009765625,-14.801025390625,34.942626953125
3.1624999000000003,0.0077811554074287415,-2.367865562438965,9.165602684020996,15.68603515625,-10.162353515625,46.600341796875
3.1674999,0.6380547285079956,-1.744175910949707,9.4014310836792,13.18359375,-6.072998046875,40.52734375
3.1724999,1.2731167078018188,-0.4207809567451477,9.860519409179688,5.31005859375,-0.518798828125,13.7939453125
3.1774999000000004,1.2731167078018188,-0.4207809567451477,9.860519409179688,5.31005859375,-0.518798828125,13.7939453125
3.1824999000000003,2.5911247730255127,0.1107318252325058,10.184335708618164,3.570556640625,25.665283203125,-27.252197265625
3.1874999,2.9759926795959473,-0.23942017555236816,9.955689430236816,17.4560546875,36.1328125,-31.67724609375
3.1924999,2.539649486541748,-0.36810851097106934,9.919178009033203,10.772705078125,29.9072265625,-53.77197265625
3.1974999000000004,1.2671312093734741,-0.6727706789970398,9.758766174316406,-5.340576171875,8.514404296875,-40.679931640625
3.2024999000000003,-2.2469582557678223,-1.9231425523757935,8.842984199523926,-2.410888671875,-26.18408203125,38.02490234375
3.2074999,-2.2469582557678223,-1.9231425523757935,8.842984199523926,-2.410888671875,-26.18408203125,38.02490234375
3.2124999,-1.3796586990356445,-2.7778725624084473,8.431779861450195,8.4228515625,-16.632080078125,36.651611328125
3.2174999,-0.21966800093650818,-2.76350736618042,8.877100944519043,15.44189453125,-10.1318359375,44.677734375
3.2224999000000003,0.414795458316803,-2.1086931228637695,9.185355186462402,15.44189453125,-7.720947265625,45.562744140625
3.2274999,1.092953085899353,-0.6835445761680603,9.773730278015137,7.293701171875,-0.79345703125,21.05712890625
3.2324999,2.513911724090576,0.34656068682670593,10.157401084899902,0.762939453125,20.32470703125,-30.670166015625
3.2374999,2.9676129817962646,-0.053270988166332245,9.939528465270996,15.44189453125,34.912109375,-25.543212890625
3.2424999000000003,2.8149826526641846,-0.20470423996448517,9.889848709106445,14.0380859375,33.14208984375,-52.703857421875
3.2474999,1.5502456426620483,-0.6039373874664307,9.773131370544434,-2.532958984375,12.939453125,-42.022705078125
3.2524999,0.22445641458034515,0.3447650372982025,9.909002304077148,-9.94873046875,-3.875732421875,-32.684326171875
3.2574999,-1.547252893447876,-0.0071826050989329815,9.864110946655273,-25.08544921875,-12.664794921875,-1.8310546875
3.2624999000000003,-2.346317768096924,-0.5704185366630554,9.335591316223145,-29.6630859375,-19.805908203125,3.936767578125
3.2674999000000002,-2.2846670150756836,-1.5849615335464478,9.138668060302734,-7.32421875,-26.092529296875,33.538818359375
3.2724999,-1.48081374168396,-2.5534160137176514,8.504802703857422,8.36181640625,-18.85986328125,39.1845703125
3.2774999,-0.3902548849582672,-2.8143839836120605,8.681375503540039,13.397216796875,-10.772705078125,41.412353515625
3.2824999000000004,0.3190273642539978,-2.1936872005462646,8.928576469421387,16.082763671875,-9.368896484375,49.041748046875
3.2874999000000003,0.9355342984199524,-0.9798270463943481,9.52114200592041,8.6669921875,-1.5869140625,28.839111328125
3.2924999,2.293046712875366,0.21128830313682556,10.082581520080566,-1.312255859375,14.739990234375,-32.379150390625
3.2974999,2.293046712875366,0.21128830313682556,10.082581520080566,-1.312255859375,14.739990234375,-32.379150390625
3.3024999000000004,2.871845006942749,-0.04668693244457245,9.971850395202637,12.786865234375,33.935546875,-23.01025390625
3.3074999000000003,2.871246337890625,-0.25258827209472656,9.971850395202637,16.082763671875,35.247802734375,-48.858642578125
3.3124999,1.8088194131851196,-0.5410895943641663,9.81143856048584,0.152587890625,17.486572265625,-43.853759765625
3.3174999,0.5871779918670654,0.076015904545784,9.746196746826172,-8.758544921875,-1.373291015625,-34.423828125
3.3224999000000004,-1.2198457717895508,0.2693476974964142,9.77672290802002,-21.514892578125,-11.65771484375,-6.744384765625
3.3274999000000003,-2.188300371170044,-0.5057750940322876,9.333196640014648,-30.487060546875,-17.08984375,2.899169921875
3.3324999,-2.364274263381958,-1.315613865852356,9.19972038269043,-13.702392578125,-24.932861328125,26.702880859375
3.3374999,-1.809417963027954,-2.4869771003723145,8.983643531799316,7.32421875,-21.240234375,41.19873046875
3.3424999,-0.6655880808830261,-2.9520506858825684,8.892663955688477,11.65771484375,-12.02392578125,38.543701171875
3.3474999000000003,0.08918401598930359,-2.5324668884277344,9.148244857788086,17.303466796875,-9.674072265625,50.29296875
3.3524999,2.8838160037994385,0.061052143573760986,10.00716495513916,9.735107421875,31.8603515625,-22.674560546875
3.3574999,3.0573954582214355,-0.25019407272338867,9.988609313964844,17.88330078125,36.773681640625,-44.891357421875
3.3624999,2.120664119720459,-0.5003881454467773,9.864110946655273,3.72314453125,21.97265625,-48.4619140625
3.3674999000000003,0.943913996219635,-0.5003881454467773,9.907206535339355,-8.331298828125,1.03759765625,-37.9638671875
3.3724999,-0.8667010068893433,0.21787235140800476,9.578003883361816,-18.310546875,-10.833740234375,-15.411376953125
3.3774999,-2.0889410972595215,-0.6853402256965637,9.34397029876709,-30.3955078125,-15.19775390625,3.7841796875
3.3824999,-2.4456770420074463,-1.0384849309921265,8.819640159606934,-19.22607421875,-24.383544921875,19.927978515625
3.3874999000000003,-1.7944542169570923,-1.9410990476608276,8.710105895996094,5.401611328125,-22.94921875,41.290283203125
3.3924999000000002,-0.849941611289978,-2.5264813899993896,8.554482460021973,10.406494140625,-13.00048828125,37.2314453125
3.3974999,0.16101007163524628,-2.279279947280884,8.928576469421387,17.791748046875,-10.284423828125,50.628662109375
3.4024999,1.2443863153457642,-0.27653029561042786,9.821015357971191,3.387451171875,-1.220703125,9.09423828125
3.4074999000000004,1.9847931861877441,0.08798690885305405,10.052654266357422,-2.838134765625,5.37109375,-28.228759765625
3.4124999000000003,2.668337821960449,0.058059390634298325,10.205883026123047,6.34765625,29.022216796875,-24.566650390625
3.4174999,3.001730442047119,-0.3016694188117981,10.073603630065918,18.1884765625,37.04833984375,-38.604736328125
3.4224999,2.3475148677825928,-0.456095427274704,9.96825885772705,7.354736328125,25.93994140625,-51.33056640625
3.4274999000000004,1.0307037830352783,-0.6937199234962463,9.762955665588379,-7.26318359375,4.39453125,-38.63525390625
3.4324999000000003,-0.5039794445037842,0.3944447338581085,9.599552154541016,-15.19775390625,-9.27734375,-22.369384765625
3.4374999,-2.100313425064087,-0.5632359385490417,9.428366661071777,-28.839111328125,-13.7939453125,4.119873046875
3.4424999,-2.053626537322998,-1.8010382652282715,9.147645950317383,2.288818359375,-24.505615234375,40.283203125
3.4474999000000004,-1.0456676483154297,-2.4642322063446045,8.82083797454834,9.307861328125,-14.923095703125,36.773681640625
3.4524999000000003,0.012569558806717396,-2.358887195587158,9.181164741516113,16.78466796875,-10.31494140625,48.553466796875
3.4574999,1.216254472732544,-0.3926490843296051,9.86231517791748,5.462646484375,-0.885009765625,16.204833984375
3.4624999,1.9231425523757935,0.09576806426048279,10.029311180114746,-2.38037109375,1.5869140625,-22.491455078125
3.4674999,2.581547975540161,0.13347674906253815,10.178350448608398,3.173828125,25.421142578125,-28.045654296875
3.4724999000000003,2.9891607761383057,-0.20949265360832214,9.961075782775879,17.4560546875,36.56005859375,-31.25
3.4774999,2.558204412460327,-0.3711012601852417,9.897629737854004,10.7421875,29.571533203125,-52.734375
3.4824999,1.2737152576446533,-0.6607996821403503,9.73542308807373,-5.2490234375,8.30078125,-39.581298828125
3.4874999,-0.08200141042470932,0.4908113479614258,9.546878814697266,-12.451171875,-6.866455078125,-28.411865234375
3.4924999000000003,-1.8285715579986572,-0.37888240814208984,9.415796279907227,-27.03857421875,-12.5732421875,2.197265625
3.4974999,-2.3475148677825928,-0.7194576263427734,8.81784439086914,-27.40478515625,-21.30126953125,7.8125
3.5024999,-2.182314872741699,-1.9183541536331177,8.851962089538574,-1.678466796875,-25.93994140625,37.933349609375
3.5074999,-1.3311761617660522,-2.765901565551758,8.454524993896484,8.880615234375,-16.876220703125,37.41455078125
3.5124999000000003,-0.1951274424791336,-2.7281928062438965,8.916007041931152,15.594482421875,-10.467529296875,45.71533203125
3.5174999000000002,1.0672154426574707,-0.6422445774078369,9.798270225524902,7.110595703125,-0.823974609375,22.5830078125
3.5224999,2.961029052734375,-0.07900865375995636,9.948506355285645,15.655517578125,35.308837890625,-25.87890625
3.5274999,2.807201385498047,-0.22685061395168304,9.885659217834473,13.580322265625,32.562255859375,-51.8798828125
3.5324999000000004,1.5047557353973389,-0.6021417379379272,9.783905029296875,-2.9296875,12.8173828125,-40.34423828125
3.5374999000000003,0.1951274424791336,0.3687070608139038,9.889249801635742,-9.94873046875,-4.058837890625,-31.25
3.5424999,-1.5526398420333862,0.038307227194309235,9.797073364257812,-24.47509765625,-12.359619140625,-0.030517578125
3.5474999,-2.299630641937256,-0.5764040350914001,9.2841157913208,-29.510498046875,-18.9208984375,3.814697265625
3.5524999000000004,-2.232593059539795,-1.5682021379470825,9.060257911682129,-7.32421875,-25.177001953125,33.14208984375
3.5574999000000003,-1.4496891498565674,-2.5785553455352783,8.473079681396484,8.514404296875,-19.22607421875,39.825439453125
3.5624999,-0.38486793637275696,-2.8377275466918945,8.702324867248535,13.153076171875,-11.1083984375,41.839599609375
3.5674999,0.943913996219635,-0.9852139949798584,9.5624418258667,8.6669921875,-0.762939453125,29.72412109375
3.5724999000000004,1.6292542219161987,-0.07481880486011505,9.882067680358887,0.152587890625,-1.983642578125,-6.072998046875
3.5774999000000003,2.32297420501709,0.1777694821357727,10.075399398803711,-1.220703125,15.07568359375,-32.989501953125
3.5824999,2.9035680294036865,-0.07721300423145294,9.95329475402832,13.12255859375,34.60693359375,-22.94921875
3.5874999,2.8868086338043213,-0.29209262132644653,9.936535835266113,15.7470703125,35.21728515625,-49.8046875
3.5924999,1.8171991109848022,-0.5638344883918762,9.790489196777344,-0.06103515625,16.815185546875,-44.769287109375
3.5974999000000003,0.5793967843055725,0.08978256583213806,9.66419506072998,-8.880615234375,-1.678466796875,-35.94970703125
3.6024999,-1.2545616626739502,0.21128830313682556,9.637260437011719,-22.4609375,-11.627197265625,-7.720947265625
3.6074999,-2.2260091304779053,-0.5692214369773865,9.096769332885742,-30.792236328125,-16.9677734375,2.716064453125
3.6124999,-2.3989901542663574,-1.4449007511138916,8.935160636901855,-13.671875,-25.665283203125,27.252197265625
3.6174999000000003,-1.8112136125564575,-2.6348190307617188,8.727463722229004,7.4462890625,-20.843505859375,40.771484375
3.6224999,-0.6494272351264954,-3.0550012588500977,8.714295387268066,12.20703125,-11.688232421875,39.520263671875
3.6274999,0.8236053586006165,-1.4233529567718506,9.463082313537598,10.772705078125,-1.922607421875,33.416748046875
3.6324999,1.5424644947052002,-0.14425064623355865,9.852140426635742,1.708984375,-1.678466796875,1.03759765625
3.6374999000000003,2.2643163204193115,0.19393034279346466,10.042478561401367,-2.50244140625,10.009765625,-32.04345703125
3.6424999000000002,2.855085611343384,0.11312603205442429,10.05923843383789,9.521484375,31.494140625,-22.125244140625
3.6474999,3.005321741104126,-0.22924481332302094,10.014347076416016,17.181396484375,35.858154296875,-45.013427734375
3.6524999,2.0925323963165283,-0.49619829654693604,9.86351203918457,3.570556640625,21.392822265625,-48.33984375
3.6574999000000004,0.9068039059638977,-0.41359832882881165,9.844358444213867,-7.75146484375,1.556396484375,-36.590576171875
3.6624999000000003,-0.8559271097183228,0.26156654953956604,9.617507934570312,-18.4326171875,-10.68115234375,-14.495849609375
3.6674999,-2.05781626701355,-0.5805938839912415,9.36013126373291,-30.517578125,-14.70947265625,2.99072265625
3.6724999,-2.406771183013916,-0.9798270463943481,8.929773330688477,-19.134521484375,-24.383544921875,20.721435546875
3.6774999000000004,-1.7447744607925415,-1.954267144203186,8.820239067077637,5.55419921875,-22.88818359375,40.985107421875
3.6824999000000003,-0.7984662652015686,-2.5773582458496094,8.631695747375488,10.92529296875,-12.908935546875,37.78076171875
3.6874999,0.20051439106464386,-2.339733600616455,8.966285705566406,18.24951171875,-9.796142578125,50.59814453125
3.6924999,0.6763619780540466,-1.5466543436050415,9.34037971496582,12.451171875,-3.0517578125,37.7197265625
3.6974999000000004,1.2437877655029297,-0.27712884545326233,9.827000617980957,3.387451171875,-1.0986328125,8.087158203125
3.7024999000000003,1.953070044517517,0.11252748221158981,10.054450035095215,-3.0517578125,5.523681640625,-29.1748046875
3.7074999,2.6342203617095947,0.10534487664699554,10.19151782989502,6.40869140625,28.9306640625,-24.139404296875
3.7124999,2.956839084625244,-0.26575639843940735,10.068815231323242,18.24951171875,36.956787109375,-39.1845703125
3.7174999,2.3289597034454346,-0.4429273009300232,9.95209789276123,7.049560546875,25.57373046875,-51.8798828125
3.7224999000000003,1.0217255353927612,-0.6865373253822327,9.774927139282227,-7.080078125,4.302978515625,-39.520263671875
3.7274999,-0.5201402902603149,0.2298433631658554,9.52353572845459,-15.44189453125,-9.27734375,-22.979736328125
3.7324999,-2.099116325378418,-0.7380126714706421,9.29309368133545,-28.9306640625,-13.336181640625,3.90625
3.7374999,-2.4343044757843018,-0.9941922426223755,8.842984199523926,-23.529052734375,-23.3154296875,14.404296875
3.7424999000000003,-2.0410568714141846,-2.0260932445526123,8.892663955688477,2.62451171875,-24.2919921875,39.85595703125
3.7474999,-1.0283095836639404,-2.6156654357910156,8.632892608642578,9.58251953125,-14.312744140625,36.956787109375
3.7524999,1.2078747749328613,-0.3513490855693817,9.865307807922363,5.096435546875,-0.91552734375,14.70947265625
3.7574999,1.889025092124939,0.14784196019172668,10.071807861328125,-2.593994140625,1.922607421875,-23.345947265625
3.7624999000000003,2.9442696571350098,-0.18375498056411743,10.013748168945312,17.333984375,36.163330078125,-32.1044921875
3.7674999000000002,2.5103204250335693,-0.3687070608139038,9.932345390319824,10.19287109375,28.86962890625,-53.22265625
3.7724999,1.2617442607879639,-0.6362590789794922,9.754576683044434,-5.43212890625,7.904052734375,-39.61181640625
3.7774999,-0.090979665517807,0.5327098965644836,9.559449195861816,-13.092041015625,-7.080078125,-27.618408203125
3.7824999000000004,-1.813009262084961,-0.3058592677116394,9.437344551086426,-27.83203125,-12.847900390625,2.471923828125
3.7874999000000003,-2.3116016387939453,-0.6165069341659546,8.860342025756836,-27.923583984375,-21.3623046875,7.8125
3.7924999,-2.1380221843719482,-1.8339585065841675,8.90762710571289,-1.678466796875,-25.634765625,37.811279296875
3.7974999,0.43694180250167847,-2.0428526401519775,9.223063468933105,15.625,-6.7138671875,46.356201171875
3.8024999000000004,1.0660183429718018,-0.6141127347946167,9.797672271728516,6.89697265625,-0.457763671875,22.186279296875
3.8074999000000003,1.7525556087493896,0.08738835901021957,10.02452278137207,-1.678466796875,-1.0986328125,-16.082763671875
3.8124999,2.5085248947143555,0.3130418658256531,10.17416000366211,0.8544921875,20.782470703125,-30.975341796875
3.8174999,2.5085248947143555,0.3130418658256531,10.17416000366211,0.8544921875,20.782470703125,-30.975341796875
3.8224999000000004,2.9478609561920166,-0.09457096457481384,9.970054626464844,15.93017578125,35.614013671875,-26.519775390625
3.8274999000000003,2.7742812633514404,-0.26156654953956604,9.917980194091797,13.24462890625,31.79931640625,-52.734375
3.8324999,1.470638394355774,-0.6302735805511475,9.813234329223633,-3.35693359375,11.41357421875,-41.07666015625
3.8374999,0.12270283699035645,0.41120412945747375,10.027515411376953,-10.43701171875,-4.69970703125,-31.280517578125
3.8424999,-1.4359225034713745,-2.565387010574341,8.62511157989502,8.97216796875,-19.073486328125,40.1611328125
3.8474999000000003,-0.32022446393966675,-2.8149826526641846,8.80467700958252,14.251708984375,-10.894775390625,43.426513671875
3.8524999,0.3603273630142212,-2.1960813999176025,8.990825653076172,16.510009765625,-7.99560546875,49.774169921875
3.8574999,0.9774328470230103,-0.921169102191925,9.566033363342285,8.575439453125,-0.30517578125,29.96826171875
3.8624999,1.6597803831100464,-0.0520738884806633,9.880870819091797,-0.3662109375,-2.044677734375,-7.110595703125
3.8674999000000003,2.3337481021881104,0.20231004059314728,10.073603630065918,-1.03759765625,15.533447265625,-32.928466796875
3.8724999,2.913144826889038,-0.09397241473197937,9.945513725280762,14.16015625,34.942626953125,-22.88818359375
3.8774999,2.8832173347473145,-0.2819172441959381,9.9401273727417,15.56396484375,34.942626953125,-50.537109375
3.8824999,1.7747019529342651,-0.5542576909065247,9.798869132995605,-0.79345703125,15.9912109375,-43.609619140625
3.8874999000000003,0.5518634915351868,0.10953472554683685,9.668983459472656,-9.185791015625,-2.13623046875,-35.430908203125
3.8924999000000002,-1.235408067703247,0.19033902883529663,9.674370765686035,-21.3623046875,-11.993408203125,-5.950927734375
3.8974999,-2.205059766769409,-0.6242880821228027,9.105149269104004,-29.9072265625,-16.845703125,3.936767578125
3.9024999,0.8152256608009338,-1.3150153160095215,9.52473258972168,9.94873046875,-1.617431640625,32.5927734375
3.9074999000000004,1.567603588104248,-0.14484919607639313,9.854534149169922,1.3427734375,-1.52587890625,0
3.9124999000000003,2.3050177097320557,0.13347674906253815,10.044873237609863,-2.166748046875,10.986328125,-32.379150390625
3.9174999,2.8820202350616455,0.014365210197865963,10.019135475158691,10.498046875,32.073974609375,-21.3623046875
3.9224999,2.057217836380005,-0.5213374495506287,9.864110946655273,2.86865234375,20.660400390625,-47.66845703125
3.9274999000000004,0.8912416100502014,-0.45848962664604187,9.889848709106445,-8.392333984375,1.190185546875,-37.353515625
3.9324999000000003,-0.8858546018600464,0.2346317619085312,9.610923767089844,-18.157958984375,-10.986328125,-14.2822265625
3.9374999,-2.0661959648132324,-0.6955155730247498,9.348758697509766,-29.9072265625,-15.228271484375,4.0283203125
3.9424999,-1.755548357963562,-2.0015525817871094,8.737040519714355,5.7373046875,-22.491455078125,41.015625
3.9474999000000004,-0.8331822156906128,-2.5510218143463135,8.595184326171875,10.406494140625,-13.12255859375,37.4755859375
3.9524999000000003,0.15023615956306458,-2.278082847595215,8.951321601867676,17.27294921875,-9.979248046875,49.9267578125
3.9574999,0.6332663297653198,-1.4574702978134155,9.349357604980469,11.71875,-3.509521484375,38.02490234375
3.9624999,1.2210428714752197,-0.22026655077934265,9.845556259155273,3.265380859375,-1.5869140625,9.552001953125
3.9674999000000004,1.9614497423171997,0.11791443079710007,10.057442665100098,-3.11279296875,4.7607421875,-28.289794921875
3.9724999000000003,2.654571056365967,0.07122749835252762,10.182539939880371,6.4697265625,28.50341796875,-23.92578125
3.9774999,2.980781078338623,-0.28790274262428284,10.071807861328125,18.00537109375,36.529541015625,-38.970947265625
3.9824999,2.319981336593628,-0.4465186297893524,9.946112632751465,6.77490234375,25.238037109375,-49.896240234375
3.9874999,1.0055646896362305,-0.641047477722168,9.773730278015137,-7.32421875,4.33349609375,-36.7431640625
3.9924999000000003,-0.48063600063323975,0.4076128304004669,9.555258750915527,-14.404296875,-9.429931640625,-20.477294921875
3.9974999,-2.0195090770721436,-0.5674257874488831,9.387065887451172,-28.289794921875,-13.7939453125,4.94384765625
4.0024999,-1.0336965322494507,-2.515707492828369,8.717886924743652,9.857177734375,-15.68603515625,37.65869140625
4.0074999,-0.031124621629714966,-2.3936030864715576,9.129091262817383,16.326904296875,-10.25390625,47.943115234375
4.0124999,0.5297171473503113,-1.6962919235229492,9.376891136169434,13.336181640625,-5.2490234375,43.51806640625
4.0174999,1.1450269222259521,-0.3555389642715454,9.880271911621094,5.218505859375,-1.007080078125,18.707275390625
4.022499900000001,1.8680758476257324,0.13347674906253815,10.04846477508545,-2.62451171875,0.3662109375,-21.484375
4.0274999000000005,2.565985679626465,0.1107318252325058,10.181343078613281,3.11279296875,24.4140625,-27.83203125
4.0324999,3.021482467651367,-0.2298433631658554,9.982624053955078,17.76123046875,36.956787109375,-31.92138671875
4.0374999,2.61087703704834,-0.3884592354297638,9.909601211547852,10.650634765625,29.9072265625,-51.6357421875
4.0424999,1.303044319152832,-0.6404489278793335,9.79647445678711,-5.55419921875,8.636474609375,-37.750244140625
4.0474999,-0.07122749835252762,0.5901707410812378,9.890447616577148,-11.749267578125,-6.744384765625,-27.923583984375
4.0524999,-1.813009262084961,-0.24839842319488525,9.764751434326172,-25.87890625,-13.12255859375,3.662109375
4.0574999,-2.163161277770996,-1.8261773586273193,9.278728485107422,-1.922607421875,-24.932861328125,36.80419921875
4.062499900000001,-1.3449428081512451,-2.691681146621704,8.7083101272583,9.27734375,-17.364501953125,38.02490234375
4.0674999000000005,-0.22924481332302094,-2.6809072494506836,9.011177062988281,14.007568359375,-10.498046875,44.00634765625
4.0724999,0.37229835987091064,-1.9955670833587646,9.212289810180664,14.495849609375,-7.659912109375,46.112060546875
4.0774999,1.0438719987869263,-0.6278793811798096,9.713275909423828,7.01904296875,-0.823974609375,24.322509765625
4.0824999,2.851494312286377,-0.2603694200515747,9.8599214553833,13.61083984375,32.745361328125,-52.3681640625
4.0874999,1.568800687789917,-0.5650315880775452,9.762357711791992,-2.838134765625,13.397216796875,-40.10009765625
4.0924999,0.24001872539520264,0.2124854028224945,9.78869342803955,-9.857177734375,-3.5400390625,-32.928466796875
4.0974999,-1.5167267322540283,0.0293289702385664,9.744400978088379,-22.979736328125,-12.603759765625,-0.8544921875
4.1024999,-1.577778935432434,-2.6174609661102295,8.637681007385254,8.453369140625,-19.8974609375,39.97802734375
4.1074999000000005,-0.5039794445037842,-2.8544869422912598,8.778340339660645,12.14599609375,-11.505126953125,40.496826171875
4.1124999,0.22744916379451752,-2.2212207317352295,9.07522201538086,15.716552734375,-9.063720703125,49.13330078125
4.1174999,0.8678981065750122,-1.0133458375930786,9.57321548461914,8.758544921875,-1.373291015625,31.158447265625
4.1224999,1.5885528326034546,-0.06584054976701736,9.876082420349121,0.244140625,-2.50244140625,-4.0283203125
4.1274999,2.2876596450805664,0.17178396880626678,10.062829971313477,-1.64794921875,13.3056640625,-32.440185546875
4.1324999,2.892794132232666,-0.07003039866685867,9.943717956542969,12.298583984375,33.294677734375,-21.728515625
4.1374999,2.9328970909118652,-0.3250128924846649,9.950302124023438,15.93017578125,34.912109375,-49.041748046875
4.1424999,1.8962076902389526,-0.568622887134552,9.794678688049316,0.91552734375,18.5546875,-43.487548828125
4.147499900000001,0.7709329724311829,-0.19393034279346466,9.57860279083252,-8.514404296875,-0.518798828125,-35.21728515625
4.1524999000000005,-1.0360907316207886,0.23343466222286224,9.613917350769043,-19.500732421875,-11.1083984375,-8.6669921875
4.1574999,-0.7793126702308655,-2.7515363693237305,8.769362449645996,10.833740234375,-12.786865234375,37.9638671875
4.1624999,0.05147533491253853,-2.4223334789276123,9.096769332885742,16.876220703125,-9.796142578125,49.6826171875
4.1674999,0.6805518269538879,-1.3868412971496582,9.469067573547363,10.7421875,-2.593994140625,35.858154296875
4.1724999,1.3778630495071411,-0.17956513166427612,9.855731010437012,2.13623046875,-2.044677734375,4.852294921875
4.1774999,2.117072820663452,0.12689268589019775,10.045472145080566,-2.777099609375,7.232666015625,-30.33447265625
4.1824999,2.7497406005859375,0.03172317147254944,10.070611000061035,8.453369140625,29.998779296875,-22.003173828125
4.187499900000001,2.9885623455047607,-0.2867056429386139,10.02691650390625,17.242431640625,35.7666015625,-43.0908203125
4.1924999000000005,2.141014814376831,-0.48303020000457764,9.891644477844238,4.730224609375,23.223876953125,-46.722412109375
4.1974999,0.8601169586181641,-0.6548141837120056,9.790489196777344,-7.720947265625,2.960205078125,-34.332275390625
4.2024999,-2.056020736694336,-0.7966706156730652,9.318831443786621,-28.228759765625,-14.5263671875,6.011962890625
4.2074999,-2.3026235103607178,-1.0384849309921265,8.826224327087402,-21.331787109375,-21.30126953125,14.678955078125
4.2124999,-1.8112136125564575,-1.9506758451461792,8.8878755569458,4.852294921875,-23.773193359375,40.8935546875
4.2174999,-0.9433154463768005,-2.4648306369781494,8.633491516113281,9.735107421875,-15.31982421875,37.4755859375
4.2224999,0.04189852997660637,-2.2457611560821533,9.046490669250488,16.021728515625,-10.43701171875,48.583984375
4.2274999,0.5506663918495178,-1.4963760375976562,9.374496459960938,11.993408203125,-4.57763671875,41.778564453125
4.2324999000000005,1.193509578704834,-0.26156654953956604,9.852738380432129,4.2724609375,-1.15966796875,15.7470703125
4.2374999,1.9470845460891724,0.11611878126859665,10.052056312561035,-2.716064453125,2.227783203125,-23.86474609375
4.2424999,2.692878246307373,0.04967968538403511,10.182539939880371,4.791259765625,26.18408203125,-26.06201171875
4.2474999,3.087921619415283,-0.2795230448246002,10.035296440124512,17.88330078125,37.261962890625,-36.1328125
4.2524999,2.542043685913086,-0.4129997789859772,9.943120002746582,8.48388671875,28.076171875,-49.62158203125
4.2574999,1.2282254695892334,-0.6350619792938232,9.804255485534668,-6.561279296875,7.232666015625,-36.041259765625
4.2624999,-0.1975216418504715,-2.535459518432617,9.015965461730957,14.434814453125,-10.406494140625,44.921875
4.2674999,0.436343252658844,-1.84233820438385,9.284713745117188,13.885498046875,-6.7138671875,44.00634765625
4.272499900000001,1.094150185585022,-0.5069721937179565,9.825803756713867,6.256103515625,-0.518798828125,20.56884765625
4.2774999000000005,1.8309657573699951,0.08080431073904037,10.020931243896484,-1.64794921875,0.152587890625,-17.51708984375
4.2824999,2.580350875854492,0.16759411990642548,10.165182113647461,1.678466796875,21.636962890625,-29.266357421875
4.2874999,3.0107085704803467,-0.19033902883529663,9.951498985290527,16.204833984375,35.736083984375,-28.3203125
4.2924999,2.7892448902130127,-0.33339259028434753,9.896432876586914,12.14599609375,31.280517578125,-52.337646484375
4.2974999,1.4550760984420776,-0.595557689666748,9.79408073425293,-3.7841796875,11.8408203125,-38.787841796875
4.3024999,-1.655590534210205,0.028730420395731926,9.849745750427246,-23.8037109375,-11.962890625,0.335693359375
4.3074999,-2.346317768096924,-0.5141547918319702,9.41639518737793,-28.25927734375,-18.218994140625,5.18798828125
4.312499900000001,-2.2595279216766357,-1.5652093887329102,9.246406555175781,-5.523681640625,-24.993896484375,34.11865234375
4.3174999000000005,-1.456871747970581,-2.493561029434204,8.608352661132812,8.544921875,-18.85986328125,38.482666015625
4.3224999,-0.37469255924224854,-2.694075345993042,8.841188430786133,12.420654296875,-10.92529296875,41.046142578125
4.3274999,0.3208230137825012,-2.054823637008667,9.049484252929688,15.106201171875,-9.002685546875,46.81396484375
4.3324999,0.9546879529953003,-0.8535329103469849,9.589975357055664,7.904052734375,-1.52587890625,26.85546875
4.3374999,1.635838270187378,-0.04668693244457245,9.888052940368652,-0.30517578125,-1.52587890625,-7.354736328125
4.3424999,2.3068132400512695,0.15801730751991272,10.063427925109863,-0.91552734375,15.31982421875,-31.646728515625
4.3474999,2.8568811416625977,-0.15023615956306458,9.931148529052734,13.458251953125,33.50830078125,-23.101806640625
4.352499900000001,2.8179752826690674,-0.3357867896556854,9.925163269042969,14.739990234375,33.75244140625,-50.1708984375
4.3574999000000005,1.725022315979004,-0.585382342338562,9.802460670471191,-0.67138671875,16.78466796875,-40.6494140625
4.3624999,-1.217451572418213,0.2645592987537384,9.821614265441895,-20.782470703125,-11.871337890625,-5.218505859375
4.3674999,-2.169146776199341,-0.5500678420066833,9.35654067993164,-30.09033203125,-16.265869140625,2.9296875
4.3724999,-2.321777105331421,-1.3437457084655762,9.223063468933105,-13.153076171875,-24.078369140625,26.55029296875
4.3774999,-1.7896658182144165,-2.5073277950286865,8.98005199432373,8.453369140625,-21.8505859375,41.473388671875
4.3824999,-0.689530074596405,-2.9203274250030518,8.865729331970215,11.627197265625,-12.20703125,39.12353515625
4.3874999,0.06883329898118973,-2.469619035720825,9.1446533203125,16.754150390625,-9.246826171875,49.652099609375
4.3924999,0.7745242714881897,-1.3096283674240112,9.494206428527832,9.796142578125,-1.953125,34.11865234375
4.397499900000001,1.5233107805252075,-0.1346738487482071,9.822212219238281,1.52587890625,-1.8310546875,2.288818359375
4.4024999000000005,-2.007538080215454,-0.8798691034317017,9.372700691223145,-29.296875,-14.2822265625,3.662109375
4.4074999,-2.007538080215454,-0.8798691034317017,9.372700691223145,-29.296875,-14.2822265625,3.662109375
4.4124999,-2.366668462753296,-1.1234791278839111,8.831012725830078,-19.04296875,-22.39990234375,18.890380859375
4.4174999,-1.7884687185287476,-2.0021512508392334,8.75080680847168,6.011962890625,-23.406982421875,41.3818359375
4.4224999,-0.9229647517204285,-2.5043349266052246,8.533533096313477,9.979248046875,-14.09912109375,37.17041015625
4.4274999,0.06883329898118973,-2.233790159225464,8.951321601867676,16.632080078125,-10.3759765625,49.163818359375
4.4324999,0.5506663918495178,-1.4401123523712158,9.329007148742676,11.505126953125,-4.241943359375,39.459228515625
4.437499900000001,1.169567584991455,-0.2346317619085312,9.847352027893066,3.387451171875,-1.5869140625,12.0849609375
4.4424999000000005,1.9039889574050903,0.10714052617549896,10.049661636352539,-2.99072265625,3.631591796875,-26.885986328125
4.4474999,2.6366145610809326,0.05147533491253853,10.179547309875488,5.859375,27.435302734375,-24.566650390625
4.4524999,2.9700071811676025,-0.2944868206977844,10.0580415725708,17.303466796875,36.407470703125,-38.4521484375
4.4574999,1.0564415454864502,-0.6524199843406677,9.768941879272461,-6.744384765625,5.462646484375,-35.21728515625
4.4624999,-0.3902548849582672,0.3800795078277588,9.494206428527832,-13.702392578125,-8.331298828125,-19.927978515625
4.4674999,-1.9177556037902832,-0.5859808921813965,9.339181900024414,-27.618408203125,-13.00048828125,4.8828125
4.4724999,-2.249951124191284,-0.8403648138046265,8.770559310913086,-24.10888671875,-20.1416015625,10.223388671875
4.477499900000001,-1.9285295009613037,-1.9632453918457031,8.936956405639648,3.021240234375,-24.96337890625,40.1611328125
4.4824999000000005,-1.0450690984725952,-2.6001031398773193,8.600570678710938,10.223388671875,-16.082763671875,38.0859375
4.4874999,-0.05925649031996727,-2.4881742000579834,9.077615737915039,16.143798828125,-10.040283203125,46.69189453125
4.4924999,0.5213374495506287,-1.7399860620498657,9.371503829956055,13.24462890625,-5.157470703125,42.90771484375
4.4974999,1.1504138708114624,-0.37828385829925537,9.898228645324707,5.31005859375,-0.54931640625,18.5546875
4.5024999,1.8716671466827393,0.1472434103488922,10.087369918823242,-2.349853515625,1.15966796875,-21.209716796875
4.5074999,2.5743653774261475,0.1107318252325058,10.229825019836426,3.387451171875,24.261474609375,-27.52685546875
4.5124999,3.022679567337036,-0.18914192914962769,10.018536567687988,18.00537109375,37.017822265625,-32.562255859375
4.5174999,-1.7579425573349,-0.23283611238002777,9.563039779663086,-23.529052734375,-12.75634765625,4.852294921875
4.522499900000001,-1.7579425573349,-0.23283611238002777,9.563039779663086,-23.529052734375,-12.75634765625,4.852294921875
4.5274999000000005,-2.2906525135040283,-0.811634361743927,8.978256225585938,-26.123046875,-18.890380859375,6.683349609375
4.5324999,-2.181716203689575,-1.8794482946395874,8.92917537689209,-1.983642578125,-23.92578125,35.82763671875
4.5374999,-1.4167689085006714,-2.6839001178741455,8.452729225158691,8.453369140625,-17.9443359375,37.7197265625
4.5424999,-0.3423708379268646,-2.6198551654815674,8.874707221984863,11.993408203125,-11.04736328125,41.32080078125
4.5474999,0.30047231912612915,-1.8997989892959595,9.173982620239258,13.18359375,-8.30078125,44.647216796875
4.5524999,1.015141487121582,-0.5979518890380859,9.723451614379883,6.622314453125,-1.678466796875,24.35302734375
4.5574999,1.7597382068634033,0.0694318488240242,9.952696800231934,-0.823974609375,-1.0986328125,-11.810302734375
4.562499900000001,1.6310498714447021,-0.5219359993934631,9.761758804321289,-2.685546875,14.251708984375,-38.75732421875
4.5674999000000005,0.37469255924224854,0.3106476664543152,9.710283279418945,-9.674072265625,-3.265380859375,-34.637451171875
4.5724999,-1.4024035930633545,0.21547815203666687,9.739013671875,-20.5078125,-11.932373046875,-1.312255859375
4.5774999,-2.228403329849243,-0.5524620413780212,9.185953140258789,-28.80859375,-17.02880859375,4.7607421875
4.5824999,-2.294243812561035,-1.4814122915267944,9.07641887664795,-9.3994140625,-23.773193359375,28.99169921875
4.5874999,-1.6573861837387085,-2.513911724090576,8.724471092224121,8.4228515625,-20.69091796875,40.435791015625
4.5924999,-0.5961562395095825,-2.828150749206543,8.823830604553223,10.711669921875,-11.90185546875,38.57421875
4.5974999,0.13527239859104156,-2.24935245513916,9.117718696594238,14.801025390625,-9.1552734375,47.821044921875
4.602499900000001,0.8439561128616333,-1.105522632598877,9.57441234588623,8.36181640625,-2.044677734375,30.792236328125
4.6074999000000005,1.5717934370040894,-0.12030863761901855,9.864709854125977,0.67138671875,-2.13623046875,-2.3193359375
4.6124999,2.298433542251587,0.11372458189725876,10.014347076416016,-1.556396484375,11.90185546875,-31.494140625
4.6174999,2.9969420433044434,-0.34416648745536804,9.9371337890625,16.4794921875,35.400390625,-47.943115234375
4.6224999,1.9788076877593994,-0.52552729845047,9.823410034179688,1.678466796875,19.95849609375,-42.78564453125
4.6274999,0.8457517623901367,-0.4596867263317108,9.899425506591797,-8.85009765625,0.396728515625,-36.43798828125
4.6324999,-0.9157821536064148,0.3010708689689636,9.692327499389648,-16.54052734375,-10.650634765625,-10.589599609375
4.6374999,-2.011728048324585,-0.7368155717849731,9.440936088562012,-28.25927734375,-15.2587890625,6.256103515625
4.6424999,1.279700756072998,-0.19452889263629913,9.84256362915039,2.716064453125,-2.13623046875,7.6904296875
4.647499900000001,2.029085874557495,0.06224924325942993,10.034697532653809,-2.471923828125,5.55419921875,-28.50341796875
4.6524999000000005,3.0125043392181396,-0.3860650360584259,10.039485931396484,17.486572265625,35.980224609375,-41.351318359375
4.6574999,2.2667105197906494,-0.5135562419891357,9.931148529052734,5.828857421875,24.90234375,-46.2646484375
4.6624999,0.9965864419937134,-0.639850378036499,9.771934509277344,-7.659912109375,4.486083984375,-35.125732421875
4.6674999,-0.4944026470184326,0.4339490532875061,9.50857162475586,-13.214111328125,-9.033203125,-18.951416015625
4.6724999,-1.9632453918457031,-0.5764040350914001,9.314043045043945,-26.30615234375,-14.007568359375,7.87353515625
4.6774999,-2.2637176513671875,-0.8212111592292786,8.780136108398438,-22.613525390625,-20.172119140625,11.505126953125
4.6824999,-1.9081788063049316,-1.88782799243927,8.944737434387207,3.60107421875,-24.0478515625,40.435791015625
4.687499900000001,-1.0319008827209473,-2.4899697303771973,8.65982723236084,9.063720703125,-16.448974609375,37.200927734375
4.6924999000000005,-0.08738835901021957,-2.3313539028167725,9.111733436584473,14.556884765625,-10.528564453125,46.478271484375
4.6974999,0.4812345504760742,-1.600523829460144,9.40023422241211,11.71875,-5.55419921875,43.8232421875
4.7024999,1.1306617259979248,-0.3345896899700165,9.880870819091797,4.669189453125,-1.52587890625,19.805908203125
4.7074999,1.8896236419677734,0.09696517139673233,10.034697532653809,-2.349853515625,0.732421875,-20.6298828125
4.7124999,2.653373956680298,-0.43694180250167847,9.892841339111328,10.07080078125,29.84619140625,-49.25537109375
4.7174999,1.3365631103515625,-0.6177040338516235,9.803058624267578,-6.04248046875,8.7890625,-37.078857421875
4.7224999,-0.0077811554074287415,0.5578489899635315,9.722254753112793,-11.04736328125,-6.4697265625,-29.96826171875
4.727499900000001,-1.7399860620498657,-0.21368250250816345,9.566631317138672,-23.25439453125,-11.871337890625,5.18798828125
4.7324999000000005,-2.235585927963257,-0.7092822790145874,9.010578155517578,-25.69580078125,-18.24951171875,7.232666015625
4.7374999,-2.122459888458252,-1.7782933712005615,8.973467826843262,-1.52587890625,-23.895263671875,36.31591796875
4.7424999,-1.3664906024932861,-2.585737943649292,8.503006935119629,8.48388671875,-18.06640625,37.353515625
4.7474999,-0.3034650683403015,-2.5474305152893066,8.903437614440918,11.932373046875,-10.6201171875,40.771484375
4.7524999,0.3429693877696991,-1.8417396545410156,9.205106735229492,13.092041015625,-7.99560546875,43.8232421875
4.7574999,1.060032844543457,-0.5722141861915588,9.716867446899414,6.40869140625,-1.373291015625,21.91162109375
4.7624999,1.7699135541915894,0.06165069341659546,9.943717956542969,-1.068115234375,-0.732421875,-14.068603515625
4.7674999,-2.1924901008605957,-0.5889736413955688,9.162610054016113,-28.076171875,-16.815185546875,5.4931640625
4.772499900000001,-2.2673089504241943,-1.4802151918411255,9.065046310424805,-8.941650390625,-23.5595703125,29.571533203125
4.7774999000000005,-1.6478092670440674,-2.4666264057159424,8.728062629699707,8.48388671875,-20.56884765625,40.496826171875
4.7824999,-0.6099228858947754,-2.759317398071289,8.849568367004395,10.43701171875,-12.0849609375,37.841796875
4.7874999,0.10833762586116791,-2.1565771102905273,9.157222747802734,14.34326171875,-9.735107421875,47.210693359375
4.7924999,0.8026561141014099,-1.0301052331924438,9.588179588317871,8.11767578125,-2.5634765625,30.609130859375
4.7974999,1.5406688451766968,-0.07422025501728058,9.873687744140625,0.579833984375,-2.410888671875,-2.01416015625
4.8024999,0.8289923667907715,-0.5231330990791321,9.891045570373535,-9.27734375,0.152587890625,-34.698486328125
4.8074999,-0.9050082564353943,0.25498247146606445,9.650428771972656,-15.7470703125,-10.80322265625,-9.70458984375
4.812499900000001,-1.9740192890167236,-0.8816647529602051,9.41100788116455,-28.076171875,-14.862060546875,6.500244140625
4.8174999000000005,-2.2703018188476562,-1.1222820281982422,8.904036521911621,-16.29638671875,-21.30126953125,20.08056640625
4.8224999,-1.7399860620498657,-2.0213048458099365,8.796297073364258,7.354736328125,-22.8271484375,42.17529296875
4.8274999,-0.8655039072036743,-2.454056739807129,8.665214538574219,9.21630859375,-14.22119140625,36.19384765625
4.8324999,0.014365210197865963,-2.118868589401245,9.012971878051758,14.739990234375,-10.19287109375,47.760009765625
4.8374999,0.6147112846374512,-1.258152961730957,9.408614158630371,9.857177734375,-3.509521484375,37.200927734375
4.8424999,1.2982559204101562,-0.15801730751991272,9.837176322937012,2.532958984375,-1.52587890625,8.1787109375
4.8474999,1.0127472877502441,-0.6021417379379272,9.782708168029785,-8.11767578125,4.119873046875,-35.58349609375
4.852499900000001,-0.4644751250743866,0.5039794445037842,9.557653427124023,-13.031005859375,-9.063720703125,-20.32470703125
4.8574999000000005,-1.932719349861145,-0.5847837924957275,9.328408241271973,-25.970458984375,-13.0615234375,7.14111328125
4.8624999,-2.2439656257629395,-0.8086416125297546,8.809465408325195,-22.27783203125,-19.744873046875,12.298583984375
4.8674999,-1.9279309511184692,-1.9015947580337524,8.952518463134766,3.72314453125,-24.35302734375,40.95458984375
4.8724999,-1.082777738571167,-2.498948097229004,8.652645111083984,8.392333984375,-16.693115234375,36.285400390625
4.8774999,-0.12629413604736328,-2.3271639347076416,9.126696586608887,13.946533203125,-10.7421875,45.7763671875
4.8824999,0.45848962664604187,-1.6053122282028198,9.393052101135254,11.90185546875,-6.16455078125,42.3583984375
4.8874999,1.139639973640442,-0.34596213698387146,9.889848709106445,4.791259765625,-1.190185546875,17.608642578125
4.8924999,2.603694438934326,-0.43933600187301636,9.880271911621094,10.040283203125,29.754638671875,-49.468994140625
4.897499900000001,1.3210008144378662,-0.6536170840263367,9.79527759552002,-5.4931640625,9.307861328125,-36.7431640625
4.9024999000000005,0.0065840547904372215,0.6063315868377686,9.816226959228516,-11.199951171875,-6.072998046875,-28.99169921875
4.9074999,-1.6813281774520874,-0.14844051003456116,9.667187690734863,-24.4140625,-11.53564453125,3.7841796875
4.9124999,-2.206256866455078,-0.5464765429496765,9.176376342773438,-26.031494140625,-18.035888671875,7.2021484375
4.9174999,-2.075174331665039,-1.644816517829895,9.106945037841797,-1.190185546875,-24.84130859375,37.2314453125
4.9224999,-1.3329718112945557,-2.4905683994293213,8.572439193725586,8.819580078125,-18.096923828125,37.689208984375
4.9274999,-0.2759317457675934,-2.5252842903137207,8.942343711853027,12.725830078125,-10.284423828125,41.595458984375
4.9324999,0.3471592366695404,-1.8531121015548706,9.192537307739258,13.7939453125,-8.1787109375,44.0673828125
4.937499900000001,1.049857497215271,-0.6027402877807617,9.729436874389648,6.7138671875,-1.0986328125,21.3623046875
4.9424999000000005,0.30047231912612915,0.37169981002807617,9.818022727966309,-9.918212890625,-3.326416015625,-33.355712890625
4.9474999,0.30047231912612915,0.37169981002807617,9.818022727966309,-9.918212890625,-3.326416015625,-33.355712890625
4.9524999,-1.3982137441635132,0.25677812099456787,9.855133056640625,-21.42333984375,-11.688232421875,-1.52587890625
4.9574999,-2.230198860168457,-0.4141969084739685,9.363123893737793,-29.1748046875,-16.6015625,4.058837890625
4.9624999,-2.22660756111145,-1.357512354850769,9.255385398864746,-9.063720703125,-24.35302734375,30.21240234375
4.9674999,-1.5963339805603027,-2.3738510608673096,8.829216957092285,8.758544921875,-21.42333984375,41.473388671875
4.9724999,-0.517746090888977,-2.7317841053009033,8.884284019470215,11.199951171875,-12.02392578125,39.459228515625
4.977499900000001,1.5759832859039307,-0.11971008777618408,9.824606895446777,0.701904296875,-1.922607421875,-2.777099609375
4.9824999000000005,1.5759832859039307,-0.11971008777618408,9.824606895446777,0.701904296875,-1.922607421875,-2.777099609375
4.9874999,2.2846670150756836,0.13108254969120026,9.99339771270752,-1.739501953125,11.871337890625,-31.43310546875
4.9924999,2.889801502227783,-0.10953472554683685,9.90122127532959,11.627197265625,32.684326171875,-22.857666015625
4.9974999,2.9478609561920166,-0.3292027413845062,9.91977596282959,15.838623046875,35.247802734375,-47.8515625
5.0024999,1.9632453918457031,-0.5386953949928284,9.813234329223633,1.373291015625,19.561767578125,-42.999267578125
5.0074999,0.8026561141014099,-0.2968810200691223,9.657012939453125,-8.85009765625,-0.030517578125,-36.9873046875
5.0124999,-0.9594763517379761,0.27653029561042786,9.868300437927246,-17.730712890625,-10.101318359375,-11.16943359375
5.0174999,-2.056619167327881,-0.619499683380127,9.425373077392578,-29.327392578125,-14.5263671875,5.035400390625
5.022499900000001,-2.3570916652679443,-1.047463297843933,9.370306968688965,-14.984130859375,-22.88818359375,22.979736328125
5.0274999000000005,-1.7729063034057617,-1.9949685335159302,9.21288776397705,7.568359375,-22.4609375,41.534423828125
5.0324999,-0.8265981078147888,-2.4666264057159424,9.006388664245605,9.552001953125,-13.24462890625,36.56005859375
5.0374999,1.2964602708816528,-0.17417816817760468,9.84256362915039,2.50244140625,-1.64794921875,5.67626953125
5.0424999,2.0207061767578125,0.09696517139673233,9.995792388916016,-2.838134765625,6.04248046875,-28.86962890625
5.0474999,2.691681146621704,-0.03950432687997818,10.039485931396484,7.659912109375,28.80859375,-22.796630859375
5.0524999,2.9700071811676025,-0.34596213698387146,9.990405082702637,17.120361328125,35.70556640625,-42.1142578125
5.0574999,2.2146365642547607,-0.48303020000457764,9.888651847839355,5.18798828125,24.23095703125,-46.142578125
5.062499900000001,0.9463081955909729,-0.656609833240509,9.780912399291992,-8.026123046875,3.72314453125,-36.19384765625
5.0674999000000005,-0.5345055460929871,0.45908817648887634,9.611522674560547,-14.373779296875,-8.97216796875,-18.85986328125
5.0724999,-2.0045454502105713,-0.6751648783683777,9.442132949829102,-27.923583984375,-12.969970703125,5.67626953125
5.0774999,-2.278681516647339,-0.8415619134902954,8.951920509338379,-21.484375,-20.6298828125,13.763427734375
5.0824999,-1.8986018896102905,-1.9488801956176758,9.077615737915039,4.94384765625,-24.47509765625,41.32080078125
5.0874999,-1.002571940422058,-2.541445016860962,8.715493202209473,9.27734375,-15.93017578125,37.261962890625
5.0924999,1.182137131690979,-0.34596213698387146,9.858125686645508,4.791259765625,-0.823974609375,16.11328125
5.0974999,1.8872294425964355,0.08259996026754379,10.021530151367188,-2.593994140625,1.3427734375,-23.101806640625
5.102499900000001,2.6126725673675537,0.020949264988303185,10.184335708618164,4.21142578125,24.993896484375,-25.81787109375
5.1074999000000005,3.0178911685943604,-0.2801215946674347,10.011953353881836,17.547607421875,36.865234375,-35.21728515625
5.1124999,2.5324668884277344,-0.36810851097106934,9.936535835266113,9.429931640625,28.9306640625,-49.407958984375
5.1174999,1.2425906658172607,-0.5871779918670654,9.815628051757812,-6.65283203125,7.62939453125,-37.9638671875
5.1224999,1.0540473461151123,-0.5560533404350281,9.764153480529785,6.65283203125,-0.6103515625,22.247314453125
5.1274999,1.778891921043396,0.020949264988303185,9.917980194091797,-1.434326171875,-0.823974609375,-15.56396484375
5.1324999,2.58813214302063,0.10833762586116791,10.056844711303711,1.129150390625,19.8974609375,-29.052734375
5.1374999,2.9969420433044434,-0.243011474609375,9.870096206665039,16.082763671875,35.064697265625,-27.40478515625
5.1424999,2.828150749206543,-0.31603461503982544,9.845556259155273,12.8173828125,32.073974609375,-50.750732421875
5.147499900000001,1.5161281824111938,-0.518943190574646,9.771934509277344,-3.72314453125,13.18359375,-38.75732421875
5.1524999000000005,0.18914192914962769,0.3627215623855591,9.827000617980957,-10.19287109375,-3.90625,-34.11865234375
5.1574999,-1.544858694076538,0.04429273307323456,9.776124000549316,-21.30126953125,-11.29150390625,-0.54931640625
5.1624999,-2.321178436279297,-0.7098808288574219,9.298480987548828,-27.89306640625,-17.02880859375,5.401611328125
5.1674999,-2.301426410675049,-1.6316484212875366,9.169194221496582,-6.28662109375,-23.956298828125,32.04345703125
5.1724999,-1.5921441316604614,-2.472013235092163,8.76577091217041,8.1787109375,-20.050048828125,39.6728515625
5.1774999,2.3127987384796143,0.13347674906253815,10.005369186401367,-1.220703125,13.916015625,-30.8837890625
5.1824999,2.8640637397766113,-0.1538274586200714,9.882067680358887,12.5732421875,32.53173828125,-22.491455078125
